"Time (s)","Acceleration x (m/s^2)","Acceleration y (m/s^2)","Acceleration z (m/s^2)","Absolute acceleration (m/s^2)"
0.000000000E0,-1.588592529E-1,-1.800842285E-1,9.806793213E0,9.809732907E0
2.349853000E-3,-1.684112549E-1,-1.515197754E-1,9.802047729E0,9.804665231E0
4.730224000E-3,-1.540679932E-1,-1.562805176E-1,9.802047729E0,9.804504079E0
7.110595000E-3,-1.875457764E-1,-1.610412598E-1,9.744964600E0,9.748099443E0
9.490967000E-3,-1.540679932E-1,-1.848449707E-1,9.768737793E0,9.771701115E0
1.187133800E-2,-1.588592529E-1,-1.705627441E-1,9.783004761E0,9.785781014E0
1.425170900E-2,-1.684112549E-1,-2.086334229E-1,9.787780762E0,9.791452522E0
1.660156200E-2,-2.066650391E-1,-1.991119385E-1,9.787780762E0,9.791986940E0
1.898193300E-2,-2.066650391E-1,-2.038879395E-1,9.835327148E0,9.839610808E0
2.136230400E-2,-1.684112549E-1,-2.038879395E-1,9.840087891E0,9.843640705E0
2.374267500E-2,-1.923217773E-1,-1.896057129E-1,9.797286987E0,9.801008637E0
2.612304700E-2,-1.875457764E-1,-2.133941650E-1,9.806793213E0,9.810907379E0
2.850341800E-2,-1.827697754E-1,-1.943664551E-1,9.806793213E0,9.810421817E0
3.088378900E-2,-1.827697754E-1,-1.991119385E-1,9.787780762E0,9.791511762E0
3.323364200E-2,-1.779785156E-1,-1.943664551E-1,9.778244019E0,9.781794864E0
3.561401300E-2,-1.971130371E-1,-1.800842285E-1,9.825820923E0,9.829447629E0
3.799438400E-2,-1.923217773E-1,-1.848449707E-1,9.792526245E0,9.796158716E0
4.037475600E-2,-1.971130371E-1,-2.133941650E-1,9.778244019E0,9.782558290E0
4.275512700E-2,-2.066650391E-1,-1.991119385E-1,9.773498535E0,9.777710858E0
4.513549800E-2,-2.019042969E-1,-2.038879395E-1,9.830566406E0,9.834753251E0
4.751586900E-2,-2.066650391E-1,-1.943664551E-1,9.806793213E0,9.810896079E0
4.989624000E-2,-1.732025146E-1,-2.038879395E-1,9.787780762E0,9.791436138E0
5.227661100E-2,-2.019042969E-1,-1.705627441E-1,9.830566406E0,9.834118815E0
5.462646500E-2,-2.019042969E-1,-2.086334229E-1,9.806793213E0,9.811089969E0
5.700683600E-2,-2.019042969E-1,-1.705627441E-1,9.806793213E0,9.810354230E0
5.938720700E-2,-1.923217773E-1,-1.753234863E-1,9.787780762E0,9.791239872E0
6.176757800E-2,-2.066650391E-1,-1.515197754E-1,9.773498535E0,9.776857486E0
6.414794900E-2,-2.019042969E-1,-2.038879395E-1,9.783004761E0,9.787211952E0
6.652832000E-2,-1.923217773E-1,-2.038879395E-1,9.768737793E0,9.772757852E0
6.890869100E-2,-1.875457764E-1,-2.038879395E-1,9.797286987E0,9.801202784E0
7.128906200E-2,-2.019042969E-1,-1.800842285E-1,9.792526245E0,9.796262856E0
7.366943300E-2,-1.971130371E-1,-1.991119385E-1,9.754470825E0,9.758493746E0
7.601928700E-2,-1.875457764E-1,-1.848449707E-1,9.830566406E0,9.834092584E0
7.839965800E-2,-1.732025146E-1,-1.705627441E-1,9.830566406E0,9.833571408E0
8.078002900E-2,-2.114562988E-1,-1.991119385E-1,9.797286987E0,9.801591281E0
8.316040000E-2,-1.779785156E-1,-1.848449707E-1,9.773498535E0,9.776866453E0
8.554077100E-2,-1.875457764E-1,-1.610412598E-1,9.811553955E0,9.814667530E0
8.792114200E-2,-1.445159912E-1,-1.705627441E-1,9.797286987E0,9.799837184E0
9.030151300E-2,-1.827697754E-1,-1.800842285E-1,9.768737793E0,9.772106896E0
9.268188400E-2,-1.540679932E-1,-1.848449707E-1,9.792526245E0,9.795482371E0
9.503173800E-2,-1.588592529E-1,-1.848449707E-1,9.806793213E0,9.809821458E0
9.741210900E-2,-1.779785156E-1,-1.800842285E-1,9.787780762E0,9.791055046E0
9.979248000E-2,-2.019042969E-1,-2.038879395E-1,9.802047729E0,9.806246750E0
1.021728510E-1,-1.732025146E-1,-1.515197754E-1,9.806793213E0,9.809492875E0
1.045532220E-1,-1.684112549E-1,-1.658020020E-1,9.802047729E0,9.804896345E0
1.069335930E-1,-1.445159912E-1,-1.658020020E-1,9.792526245E0,9.794995939E0
1.093139650E-1,-1.684112549E-1,-1.800842285E-1,9.773498535E0,9.776608118E0
1.116943360E-1,-1.588592529E-1,-1.753234863E-1,9.787780762E0,9.790639756E0
1.140441890E-1,-1.684112549E-1,-1.562805176E-1,9.778244019E0,9.780942799E0
1.164245600E-1,-1.636505127E-1,-1.896057129E-1,9.783004761E0,9.786210399E0
1.188049310E-1,-1.445159912E-1,-1.753234863E-1,9.806793213E0,9.809424872E0
1.211853020E-1,-1.875457764E-1,-1.896057129E-1,9.787780762E0,9.791413380E0
1.235656740E-1,-1.732025146E-1,-1.800842285E-1,9.783004761E0,9.786194949E0
1.259460450E-1,-1.732025146E-1,-1.800842285E-1,9.792526245E0,9.795713333E0
1.283264160E-1,-1.492919922E-1,-1.610412598E-1,9.811553955E0,9.814011076E0
1.307067870E-1,-1.827697754E-1,-1.943664551E-1,9.792526245E0,9.796160134E0
1.330871580E-1,-1.779785156E-1,-2.038879395E-1,9.835327148E0,9.839050094E0
1.354370110E-1,-1.492919922E-1,-1.848449707E-1,9.835327148E0,9.838196780E0
1.378173830E-1,-1.684112549E-1,-1.658020020E-1,9.802047729E0,9.804896345E0
1.401977540E-1,-1.779785156E-1,-1.705627441E-1,9.773498535E0,9.776606856E0
1.425781250E-1,-1.827697754E-1,-1.705627441E-1,9.806793213E0,9.809979081E0
1.449584960E-1,-1.923217773E-1,-1.896057129E-1,9.802047729E0,9.805767572E0
1.473388670E-1,-1.779785156E-1,-1.848449707E-1,9.759231567E0,9.762604407E0
1.497192380E-1,-1.827697754E-1,-1.610412598E-1,9.763992310E0,9.767030506E0
1.520690920E-1,-1.827697754E-1,-1.800842285E-1,9.802047729E0,9.805405387E0
1.544494630E-1,-1.636505127E-1,-1.610412598E-1,9.787780762E0,9.790473330E0
1.568298340E-1,-1.588592529E-1,-2.038879395E-1,9.783004761E0,9.786418584E0
1.592102050E-1,-2.353668213E-1,-1.705627441E-1,9.778244019E0,9.782563329E0
1.615905760E-1,-1.827697754E-1,-1.848449707E-1,9.797286987E0,9.800734909E0
1.639709470E-1,-2.162475586E-1,-2.133941650E-1,9.797286987E0,9.801996347E0
1.663513180E-1,-1.875457764E-1,-1.943664551E-1,9.787780762E0,9.791506727E0
1.687316890E-1,-1.923217773E-1,-1.991119385E-1,9.802047729E0,9.805955992E0
1.711120600E-1,-2.019042969E-1,-1.800842285E-1,9.816314697E0,9.820042256E0
1.734619140E-1,-2.114562988E-1,-1.943664551E-1,9.792526245E0,9.796737332E0
1.758422850E-1,-1.971130371E-1,-1.943664551E-1,9.797286987E0,9.801197079E0
1.782226560E-1,-1.827697754E-1,-2.038879395E-1,9.787780762E0,9.791610047E0
1.806030270E-1,-1.875457764E-1,-1.705627441E-1,9.768737793E0,9.772026562E0
1.829833980E-1,-1.971130371E-1,-1.896057129E-1,9.735458374E0,9.739299442E0
1.853637690E-1,-1.875457764E-1,-1.848449707E-1,9.744964600E0,9.748521741E0
1.877441400E-1,-1.779785156E-1,-1.658020020E-1,9.778244019E0,9.781268974E0
1.901245110E-1,-1.923217773E-1,-1.848449707E-1,9.773498535E0,9.777138075E0
1.925048830E-1,-2.210235596E-1,-1.610412598E-1,9.787780762E0,9.791600377E0
1.948547360E-1,-1.875457764E-1,-1.943664551E-1,9.787780762E0,9.791506727E0
1.972351070E-1,-1.875457764E-1,-1.753234863E-1,9.783004761E0,9.786372867E0
1.996154780E-1,-2.019042969E-1,-1.800842285E-1,9.778244019E0,9.781986085E0
2.019958490E-1,-1.636505127E-1,-1.705627441E-1,9.825820923E0,9.828663691E0
2.043762200E-1,-2.019042969E-1,-1.800842285E-1,9.830566406E0,9.834288563E0
2.067565920E-1,-1.923217773E-1,-1.467590332E-1,9.792526245E0,9.795514083E0
2.091369630E-1,-1.588592529E-1,-1.943664551E-1,9.825820923E0,9.829026981E0
2.115173340E-1,-1.636505127E-1,-1.753234863E-1,9.854370117E0,9.857288178E0
2.138977050E-1,-1.827697754E-1,-1.610412598E-1,9.806793213E0,9.809818153E0
2.162780760E-1,-1.684112549E-1,-1.705627441E-1,9.773498535E0,9.776437368E0
2.186584470E-1,-1.779785156E-1,-1.848449707E-1,9.816314697E0,9.819667930E0
2.210388180E-1,-1.779785156E-1,-1.705627441E-1,9.778244019E0,9.781350831E0
2.234191890E-1,-1.779785156E-1,-1.848449707E-1,9.778244019E0,9.781610302E0
2.257995600E-1,-1.492919922E-1,-1.991119385E-1,9.773498535E0,9.776666471E0
2.281799310E-1,-1.636505127E-1,-1.800842285E-1,9.825820923E0,9.828833533E0
2.305603020E-1,-1.732025146E-1,-1.705627441E-1,9.759231567E0,9.762258527E0
2.329101560E-1,-1.445159912E-1,-1.991119385E-1,9.768737793E0,9.771835473E0
2.352905270E-1,-1.732025146E-1,-1.848449707E-1,9.763992310E0,9.767277645E0
2.376708980E-1,-1.540679932E-1,-1.705627441E-1,9.768737793E0,9.771441381E0
2.400512690E-1,-1.492919922E-1,-1.658020020E-1,9.806793213E0,9.809330840E0
2.424316400E-1,-1.636505127E-1,-1.896057129E-1,9.787780762E0,9.790984836E0
2.448120110E-1,-1.684112549E-1,-1.705627441E-1,9.821060181E0,9.823984786E0
2.471923830E-1,-1.349487305E-1,-1.848449707E-1,9.825820923E0,9.828485928E0
2.495727540E-1,-1.684112549E-1,-1.800842285E-1,9.821060181E0,9.824154709E0
2.519531250E-1,-1.492919922E-1,-1.705627441E-1,9.806793213E0,9.809412463E0
2.543029780E-1,-1.540679932E-1,-1.848449707E-1,9.821060181E0,9.824007720E0
2.566833490E-1,-1.445159912E-1,-2.086334229E-1,9.763992310E0,9.767290238E0
2.590637200E-1,-1.732025146E-1,-1.800842285E-1,9.783004761E0,9.786194949E0
2.614440920E-1,-1.684112549E-1,-2.038879395E-1,9.811553955E0,9.815117098E0
2.638244630E-1,-1.875457764E-1,-1.896057129E-1,9.816314697E0,9.819936761E0
2.662048340E-1,-1.492919922E-1,-1.896057129E-1,9.783004761E0,9.785980818E0
2.685852050E-1,-1.636505127E-1,-1.658020020E-1,9.797286987E0,9.800056332E0
2.709655760E-1,-1.636505127E-1,-1.896057129E-1,9.773498535E0,9.776707290E0
2.733154290E-1,-1.588592529E-1,-1.991119385E-1,9.787780762E0,9.791094631E0
2.756958000E-1,-1.779785156E-1,-1.943664551E-1,9.778244019E0,9.781794864E0
2.780761720E-1,-1.684112549E-1,-1.848449707E-1,9.787780762E0,9.790974530E0
2.804565430E-1,-1.779785156E-1,-1.896057129E-1,9.806793213E0,9.810240558E0
2.828369140E-1,-2.019042969E-1,-1.848449707E-1,9.763992310E0,9.767828767E0
2.852172850E-1,-2.114562988E-1,-2.086334229E-1,9.783004761E0,9.787513669E0
2.875976560E-1,-1.779785156E-1,-1.705627441E-1,9.792526245E0,9.795628528E0
2.899780270E-1,-1.923217773E-1,-2.038879395E-1,9.797286987E0,9.801295336E0
2.923278810E-1,-2.066650391E-1,-1.800842285E-1,9.759231567E0,9.763080536E0
2.947082520E-1,-1.923217773E-1,-1.848449707E-1,9.821060181E0,9.824682102E0
2.970886230E-1,-1.732025146E-1,-1.991119385E-1,9.816314697E0,9.819861451E0
2.994689940E-1,-1.827697754E-1,-1.753234863E-1,9.787780762E0,9.791056907E0
3.018493650E-1,-2.210235596E-1,-2.181701660E-1,9.844833374E0,9.849730646E0
3.042297360E-1,-1.875457764E-1,-1.753234863E-1,9.854370117E0,9.857713840E0
3.066101070E-1,-2.019042969E-1,-2.038879395E-1,9.802047729E0,9.806246750E0
3.089904780E-1,-2.114562988E-1,-2.276763916E-1,9.825820923E0,9.830732786E0
3.113708490E-1,-2.162475586E-1,-2.038879395E-1,9.849609375E0,9.854092456E0
3.137207030E-1,-1.684112549E-1,-1.896057129E-1,9.797286987E0,9.800568605E0
3.161010740E-1,-1.923217773E-1,-1.896057129E-1,9.783004761E0,9.786731842E0
3.184814450E-1,-2.066650391E-1,-2.181701660E-1,9.792526245E0,9.797136261E0
3.208618160E-1,-1.923217773E-1,-1.896057129E-1,9.825820923E0,9.829531769E0
3.232421870E-1,-1.875457764E-1,-2.038879395E-1,9.773498535E0,9.777423859E0
3.256225580E-1,-1.971130371E-1,-1.896057129E-1,9.792526245E0,9.796344938E0
3.280029290E-1,-1.636505127E-1,-1.705627441E-1,9.792526245E0,9.795378676E0
3.303833000E-1,-1.588592529E-1,-2.086334229E-1,9.778244019E0,9.781759568E0
3.327331540E-1,-1.827697754E-1,-1.848449707E-1,9.773498535E0,9.776954847E0
3.351135250E-1,-1.684112549E-1,-1.848449707E-1,9.802047729E0,9.805236851E0
3.374938960E-1,-1.684112549E-1,-1.610412598E-1,9.792526245E0,9.795298204E0
3.398742670E-1,-1.875457764E-1,-1.991119385E-1,9.740203857E0,9.744043830E0
3.422546380E-1,-1.732025146E-1,-1.848449707E-1,9.821060181E0,9.824326432E0
3.446350090E-1,-1.588592529E-1,-1.658020020E-1,9.821060181E0,9.823744176E0
3.470153810E-1,-1.684112549E-1,-1.896057129E-1,9.806793213E0,9.810071651E0
3.493957520E-1,-1.349487305E-1,-1.848449707E-1,9.749725342E0,9.752411141E0
3.517456050E-1,-1.492919922E-1,-1.705627441E-1,9.749725342E0,9.752359919E0
3.541259760E-1,-1.588592529E-1,-1.848449707E-1,9.749725342E0,9.752771307E0
3.565063470E-1,-1.827697754E-1,-1.896057129E-1,9.744964600E0,9.748522461E0
3.588867180E-1,-1.588592529E-1,-1.848449707E-1,9.754470825E0,9.757515309E0
3.612670900E-1,-1.684112549E-1,-1.705627441E-1,9.763992310E0,9.766934003E0
3.636474610E-1,-1.492919922E-1,-1.848449707E-1,9.773498535E0,9.776386315E0
3.660278320E-1,-1.588592529E-1,-1.800842285E-1,9.735458374E0,9.738419602E0
3.684082030E-1,-1.827697754E-1,-1.800842285E-1,9.759231567E0,9.762603951E0
3.707885740E-1,-1.875457764E-1,-1.896057129E-1,9.802047729E0,9.805675063E0
3.731384270E-1,-1.732025146E-1,-1.658020020E-1,9.749725342E0,9.752673154E0
3.755187990E-1,-1.779785156E-1,-1.991119385E-1,9.792526245E0,9.796167219E0
3.778991700E-1,-1.971130371E-1,-1.705627441E-1,9.811553955E0,9.815015854E0
3.802795410E-1,-1.923217773E-1,-1.800842285E-1,9.830566406E0,9.834096494E0
3.826599120E-1,-2.019042969E-1,-1.515197754E-1,9.849609375E0,9.852843672E0
3.850402830E-1,-1.875457764E-1,-1.800842285E-1,9.821060181E0,9.824501352E0
3.874206540E-1,-2.114562988E-1,-1.705627441E-1,9.835327148E0,9.839078490E0
3.898010250E-1,-1.732025146E-1,-1.896057129E-1,9.816314697E0,9.819673298E0
3.921508790E-1,-2.162475586E-1,-1.848449707E-1,9.811553955E0,9.815677342E0
3.945312500E-1,-2.162475586E-1,-1.562805176E-1,9.844833374E0,9.848448140E0
3.969116210E-1,-2.114562988E-1,-1.848449707E-1,9.797286987E0,9.801311838E0
3.992919920E-1,-2.258148193E-1,-1.800842285E-1,9.787780762E0,9.792041406E0
4.016723630E-1,-2.114562988E-1,-1.991119385E-1,9.806793213E0,9.811093336E0
4.040527340E-1,-1.971130371E-1,-1.896057129E-1,9.787780762E0,9.791601305E0
4.064331050E-1,-2.258148193E-1,-1.562805176E-1,9.759231567E0,9.763094628E0
4.088134760E-1,-2.162475586E-1,-1.848449707E-1,9.759231567E0,9.763377052E0
4.111633300E-1,-2.019042969E-1,-1.705627441E-1,9.825820923E0,9.829375046E0
4.135437010E-1,-2.066650391E-1,-1.753234863E-1,9.792526245E0,9.796275773E0
4.159240720E-1,-2.066650391E-1,-1.705627441E-1,9.797286987E0,9.800950689E0
4.183044430E-1,-2.019042969E-1,-1.277313232E-1,9.835327148E0,9.838228537E0
4.206848140E-1,-1.923217773E-1,-1.610412598E-1,9.830566406E0,9.833766207E0
4.230651850E-1,-2.066650391E-1,-2.086334229E-1,9.773498535E0,9.777909386E0
4.254455560E-1,-2.066650391E-1,-2.133941650E-1,9.825820923E0,9.830310489E0
4.278259270E-1,-1.684112549E-1,-1.848449707E-1,9.806793213E0,9.809980792E0
4.302062990E-1,-1.588592529E-1,-1.991119385E-1,9.802047729E0,9.805356777E0
4.325561520E-1,-1.971130371E-1,-2.181701660E-1,9.773498535E0,9.777920300E0
4.349365230E-1,-1.732025146E-1,-2.133941650E-1,9.778244019E0,9.782105717E0
4.373168940E-1,-1.827697754E-1,-2.133941650E-1,9.773498535E0,9.777536268E0
4.396972650E-1,-1.301574707E-1,-2.133941650E-1,9.735458374E0,9.738666633E0
4.420776360E-1,-1.875457764E-1,-1.943664551E-1,9.773498535E0,9.777229943E0
4.444580080E-1,-1.445159912E-1,-1.943664551E-1,9.830566406E0,9.833549667E0
4.468383790E-1,-1.492919922E-1,-1.610412598E-1,9.792526245E0,9.794988139E0
4.492187500E-1,-1.732025146E-1,-1.610412598E-1,9.768737793E0,9.771600251E0
4.515686030E-1,-1.445159912E-1,-1.848449707E-1,9.792526245E0,9.795336788E0
4.539489740E-1,-1.636505127E-1,-2.086334229E-1,9.806793213E0,9.810377287E0
4.563293450E-1,-1.397247314E-1,-1.943664551E-1,9.802047729E0,9.804970220E0
4.587097170E-1,-1.779785156E-1,-2.371978760E-1,9.773498535E0,9.777996359E0
4.610900880E-1,-1.732025146E-1,-2.229156494E-1,9.754470825E0,9.758554789E0
4.634704590E-1,-1.445159912E-1,-2.419586182E-1,9.773498535E0,9.777561171E0
4.658508300E-1,-1.540679932E-1,-2.133941650E-1,9.763992310E0,9.767539088E0
4.682312010E-1,-1.397247314E-1,-1.800842285E-1,9.835327148E0,9.837967953E0
4.705810540E-1,-1.540679932E-1,-1.943664551E-1,9.840087891E0,9.843213142E0
4.729614250E-1,-1.445159912E-1,-2.133941650E-1,9.816314697E0,9.819697357E0
4.753417970E-1,-1.684112549E-1,-1.800842285E-1,9.811553955E0,9.814651481E0
4.777221680E-1,-1.492919922E-1,-1.848449707E-1,9.840087891E0,9.842956134E0
4.801025390E-1,-1.492919922E-1,-1.610412598E-1,9.835327148E0,9.837778332E0
4.824829100E-1,-1.540679932E-1,-1.943664551E-1,9.773498535E0,9.776645073E0
4.848632810E-1,-1.540679932E-1,-1.753234863E-1,9.768737793E0,9.771525640E0
4.872436520E-1,-1.636505127E-1,-1.896057129E-1,9.825820923E0,9.829012597E0
4.896240230E-1,-1.445159912E-1,-2.038879395E-1,9.802047729E0,9.805233034E0
4.920043940E-1,-1.540679932E-1,-2.133941650E-1,9.806793213E0,9.810324517E0
4.943847650E-1,-1.492919922E-1,-1.848449707E-1,9.802047729E0,9.804927101E0
4.967651360E-1,-1.732025146E-1,-1.610412598E-1,9.783004761E0,9.785863046E0
4.991455080E-1,-1.827697754E-1,-1.991119385E-1,9.787780762E0,9.791511762E0
5.015258790E-1,-1.827697754E-1,-1.896057129E-1,9.811553955E0,9.815087678E0
5.039062500E-1,-1.636505127E-1,-1.753234863E-1,9.844833374E0,9.847754261E0
5.062866210E-1,-1.923217773E-1,-1.896057129E-1,9.792526245E0,9.796249704E0
5.086669920E-1,-1.875457764E-1,-1.467590332E-1,9.768737793E0,9.771640072E0
5.110168450E-1,-2.019042969E-1,-1.610412598E-1,9.806793213E0,9.810193309E0
5.133972170E-1,-1.827697754E-1,-1.658020020E-1,9.787780762E0,9.790891039E0
5.157775880E-1,-2.019042969E-1,-1.896057129E-1,9.797286987E0,9.801201354E0
5.181579590E-1,-1.827697754E-1,-1.705627441E-1,9.802047729E0,9.805235139E0
5.205383300E-1,-1.875457764E-1,-1.610412598E-1,9.844833374E0,9.847936427E0
5.229187010E-1,-1.684112549E-1,-2.038879395E-1,9.754470825E0,9.758054812E0
5.252990720E-1,-1.875457764E-1,-1.848449707E-1,9.783004761E0,9.786548075E0
5.276794430E-1,-1.875457764E-1,-1.800842285E-1,9.768737793E0,9.772197389E0
5.300292970E-1,-1.923217773E-1,-1.848449707E-1,9.787780762E0,9.791414993E0
5.324096680E-1,-1.779785156E-1,-1.943664551E-1,9.797286987E0,9.800830933E0
5.347900390E-1,-1.684112549E-1,-1.658020020E-1,9.825820923E0,9.828662649E0
5.371704100E-1,-2.162475586E-1,-1.753234863E-1,9.802047729E0,9.806000256E0
5.395507810E-1,-1.827697754E-1,-1.562805176E-1,9.768737793E0,9.771697215E0
5.419311520E-1,-1.923217773E-1,-1.943664551E-1,9.754470825E0,9.758302468E0
5.443115230E-1,-2.066650391E-1,-1.800842285E-1,9.783004761E0,9.786844380E0
5.466918940E-1,-2.066650391E-1,-2.038879395E-1,9.773498535E0,9.777809282E0
5.490722650E-1,-1.684112549E-1,-1.991119385E-1,9.754470825E0,9.757956189E0
5.514221190E-1,-1.732025146E-1,-2.038879395E-1,9.806793213E0,9.810441505E0
5.538024900E-1,-2.019042969E-1,-1.800842285E-1,9.773498535E0,9.777242418E0
5.561828610E-1,-1.971130371E-1,-2.086334229E-1,9.778244019E0,9.782455599E0
5.585632320E-1,-1.971130371E-1,-1.991119385E-1,9.778244019E0,9.782257163E0
5.609436030E-1,-1.827697754E-1,-2.038879395E-1,9.787780762E0,9.791610047E0
5.633239740E-1,-1.732025146E-1,-1.896057129E-1,9.797286987E0,9.800652108E0
5.657043450E-1,-1.636505127E-1,-2.133941650E-1,9.773498535E0,9.777197563E0
5.680847170E-1,-1.875457764E-1,-2.038879395E-1,9.783004761E0,9.786926272E0
5.704345700E-1,-1.588592529E-1,-1.753234863E-1,9.787780762E0,9.790639756E0
5.728149410E-1,-2.019042969E-1,-2.371978760E-1,9.778244019E0,9.783204192E0
5.751953120E-1,-1.923217773E-1,-2.133941650E-1,9.792526245E0,9.796738998E0
5.775756830E-1,-1.779785156E-1,-1.800842285E-1,9.783004761E0,9.786280643E0
5.799560540E-1,-1.827697754E-1,-1.705627441E-1,9.797286987E0,9.800475945E0
5.823364250E-1,-2.019042969E-1,-2.038879395E-1,9.797286987E0,9.801488048E0
5.847167970E-1,-1.827697754E-1,-1.896057129E-1,9.825820923E0,9.829349517E0
5.870971680E-1,-1.588592529E-1,-1.800842285E-1,9.811553955E0,9.814492223E0
5.894470210E-1,-1.827697754E-1,-1.896057129E-1,9.797286987E0,9.800825854E0
5.918273920E-1,-1.540679932E-1,-1.848449707E-1,9.816314697E0,9.819263661E0
5.942077630E-1,-1.492919922E-1,-1.610412598E-1,9.811553955E0,9.814011076E0
5.965881340E-1,-1.732025146E-1,-1.753234863E-1,9.811553955E0,9.814648667E0
5.989685060E-1,-1.827697754E-1,-1.610412598E-1,9.792526245E0,9.795555591E0
6.013488770E-1,-1.732025146E-1,-1.610412598E-1,9.792526245E0,9.795381752E0
6.037292480E-1,-1.588592529E-1,-1.705627441E-1,9.792526245E0,9.795299800E0
6.061096190E-1,-1.492919922E-1,-1.515197754E-1,9.783004761E0,9.785316985E0
6.084899900E-1,-1.540679932E-1,-1.610412598E-1,9.787780762E0,9.790317843E0
6.108398430E-1,-1.588592529E-1,-1.658020020E-1,9.783004761E0,9.785699194E0
6.132202150E-1,-1.492919922E-1,-1.562805176E-1,9.783004761E0,9.785391860E0
6.156005860E-1,-1.636505127E-1,-1.610412598E-1,9.806793213E0,9.809480562E0
6.179809570E-1,-1.779785156E-1,-1.372375488E-1,9.802047729E0,9.804623919E0
6.203613280E-1,-1.923217773E-1,-1.562805176E-1,9.835327148E0,9.838448627E0
6.227416990E-1,-2.019042969E-1,-1.658020020E-1,9.797286987E0,9.800769764E0
6.251220700E-1,-1.875457764E-1,-1.658020020E-1,9.783004761E0,9.786206919E0
6.275024410E-1,-1.588592529E-1,-1.562805176E-1,9.797286987E0,9.799821028E0
6.298522950E-1,-1.397247314E-1,-1.896057129E-1,9.783004761E0,9.785839539E0
6.322326660E-1,-1.875457764E-1,-2.038879395E-1,9.802047729E0,9.805961626E0
6.346130370E-1,-1.732025146E-1,-1.991119385E-1,9.797286987E0,9.800840627E0
6.369934080E-1,-1.875457764E-1,-1.610412598E-1,9.763992310E0,9.767121046E0
6.393737790E-1,-1.732025146E-1,-1.800842285E-1,9.787780762E0,9.790969394E0
6.417541500E-1,-1.540679932E-1,-1.800842285E-1,9.778244019E0,9.781115650E0
6.441345210E-1,-1.540679932E-1,-2.038879395E-1,9.787780762E0,9.791116355E0
6.465148920E-1,-1.684112549E-1,-1.943664551E-1,9.783004761E0,9.786384563E0
6.488647460E-1,-1.875457764E-1,-1.753234863E-1,9.816314697E0,9.819671378E0
6.512451170E-1,-1.732025146E-1,-1.991119385E-1,9.787780762E0,9.791337851E0
6.536254880E-1,-1.684112549E-1,-1.610412598E-1,9.792526245E0,9.795298204E0
6.560058590E-1,-1.875457764E-1,-1.943664551E-1,9.763992310E0,9.767727349E0
6.583862300E-1,-1.779785156E-1,-2.086334229E-1,9.792526245E0,9.796365373E0
6.607666010E-1,-1.540679932E-1,-1.658020020E-1,9.821060181E0,9.823667865E0
6.631469720E-1,-1.923217773E-1,-1.800842285E-1,9.787780762E0,9.791326276E0
6.655273430E-1,-1.875457764E-1,-1.991119385E-1,9.759231567E0,9.763064056E0
6.679077150E-1,-1.923217773E-1,-2.133941650E-1,9.783004761E0,9.787221612E0
6.702575680E-1,-1.732025146E-1,-2.086334229E-1,9.792526245E0,9.796279767E0
6.726379390E-1,-1.779785156E-1,-2.086334229E-1,9.787780762E0,9.791621750E0
6.750183100E-1,-1.827697754E-1,-1.800842285E-1,9.811553955E0,9.814908361E0
6.773986810E-1,-1.875457764E-1,-1.943664551E-1,9.835327148E0,9.839035108E0
6.797790520E-1,-1.588592529E-1,-1.991119385E-1,9.783004761E0,9.786320247E0
6.821594240E-1,-1.684112549E-1,-1.800842285E-1,9.797286987E0,9.800389022E0
6.845397950E-1,-1.923217773E-1,-1.896057129E-1,9.811553955E0,9.815270195E0
6.869201660E-1,-1.779785156E-1,-1.896057129E-1,9.816314697E0,9.819758699E0
6.892700190E-1,-1.827697754E-1,-1.991119385E-1,9.787780762E0,9.791511762E0
6.916503900E-1,-2.066650391E-1,-1.991119385E-1,9.816314697E0,9.820508655E0
6.940307610E-1,-1.636505127E-1,-1.848449707E-1,9.797286987E0,9.800397005E0
6.964111330E-1,-1.827697754E-1,-2.038879395E-1,9.806793213E0,9.810615078E0
6.987915040E-1,-1.971130371E-1,-2.038879395E-1,9.773498535E0,9.777612053E0
7.011718750E-1,-1.588592529E-1,-1.943664551E-1,9.806793213E0,9.810005489E0
7.035522460E-1,-1.827697754E-1,-1.610412598E-1,9.806793213E0,9.809818153E0
7.059326170E-1,-1.684112549E-1,-1.896057129E-1,9.759231567E0,9.762525978E0
7.082824700E-1,-1.779785156E-1,-1.943664551E-1,9.773498535E0,9.777051104E0
7.106628420E-1,-1.923217773E-1,-1.800842285E-1,9.773498535E0,9.777049228E0
7.130432130E-1,-1.588592529E-1,-1.705627441E-1,9.778244019E0,9.781021623E0
7.154235840E-1,-1.636505127E-1,-1.896057129E-1,9.783004761E0,9.786210399E0
7.178039550E-1,-1.636505127E-1,-1.896057129E-1,9.783004761E0,9.786210399E0
7.201843260E-1,-1.779785156E-1,-1.705627441E-1,9.802047729E0,9.805147000E0
7.225646970E-1,-1.875457764E-1,-1.610412598E-1,9.768737793E0,9.771865010E0
7.249450680E-1,-1.732025146E-1,-1.848449707E-1,9.783004761E0,9.786283714E0
7.272949220E-1,-1.684112549E-1,-1.515197754E-1,9.821060181E0,9.823672616E0
7.296752930E-1,-2.019042969E-1,-1.800842285E-1,9.792526245E0,9.796262856E0
7.320556640E-1,-1.971130371E-1,-1.705627441E-1,9.787780762E0,9.791251066E0
7.344360350E-1,-1.971130371E-1,-1.943664551E-1,9.825820923E0,9.829719664E0
7.368164060E-1,-1.588592529E-1,-1.610412598E-1,9.797286987E0,9.799898105E0
7.391967770E-1,-1.492919922E-1,-1.848449707E-1,9.811553955E0,9.814430538E0
7.415771480E-1,-1.827697754E-1,-1.896057129E-1,9.816314697E0,9.819846707E0
7.439575190E-1,-1.827697754E-1,-2.133941650E-1,9.811553955E0,9.815576034E0
7.463378900E-1,-1.540679932E-1,-1.848449707E-1,9.811553955E0,9.814504349E0
7.486877440E-1,-1.588592529E-1,-2.038879395E-1,9.768737793E0,9.772156600E0
7.510681150E-1,-1.779785156E-1,-1.943664551E-1,9.778244019E0,9.781794864E0
7.534484860E-1,-1.540679932E-1,-1.753234863E-1,9.787780762E0,9.790563187E0
7.558288570E-1,-1.827697754E-1,-1.753234863E-1,9.778244019E0,9.781523358E0
7.582092280E-1,-1.397247314E-1,-1.848449707E-1,9.778244019E0,9.780989048E0
7.605895990E-1,-1.732025146E-1,-1.800842285E-1,9.825820923E0,9.828997215E0
7.629699700E-1,-1.732025146E-1,-1.753234863E-1,9.802047729E0,9.805145441E0
7.653503420E-1,-1.445159912E-1,-2.086334229E-1,9.778244019E0,9.781537142E0
7.677001950E-1,-1.492919922E-1,-1.991119385E-1,9.825820923E0,9.828971995E0
7.700805660E-1,-1.684112549E-1,-1.800842285E-1,9.806793213E0,9.809892242E0
7.724609370E-1,-1.540679932E-1,-1.753234863E-1,9.773498535E0,9.776285025E0
7.748413080E-1,-1.636505127E-1,-2.038879395E-1,9.778244019E0,9.781738489E0
7.772216790E-1,-1.732025146E-1,-2.086334229E-1,9.825820923E0,9.829561731E0
7.796020500E-1,-1.636505127E-1,-1.800842285E-1,9.816314697E0,9.819330224E0
7.819824220E-1,-1.684112549E-1,-1.610412598E-1,9.759231567E0,9.762012980E0
7.843627930E-1,-1.971130371E-1,-1.658020020E-1,9.792526245E0,9.795913133E0
7.867431640E-1,-1.684112549E-1,-1.658020020E-1,9.768737793E0,9.771596119E0
7.891235350E-1,-1.732025146E-1,-1.896057129E-1,9.806793213E0,9.810155073E0
7.915039060E-1,-1.779785156E-1,-2.133941650E-1,9.792526245E0,9.796467919E0
7.938842770E-1,-1.684112549E-1,-1.658020020E-1,9.816314697E0,9.819159174E0
7.962646480E-1,-2.019042969E-1,-2.038879395E-1,9.787780762E0,9.791985901E0
7.986450190E-1,-1.540679932E-1,-1.991119385E-1,9.792526245E0,9.795761980E0
8.010253900E-1,-1.971130371E-1,-1.896057129E-1,9.797286987E0,9.801103825E0
8.034057610E-1,-1.875457764E-1,-1.658020020E-1,9.797286987E0,9.800484480E0
8.057861330E-1,-1.732025146E-1,-1.896057129E-1,9.806793213E0,9.810155073E0
8.081359860E-1,-1.636505127E-1,-1.753234863E-1,9.787780762E0,9.790718669E0
8.105163570E-1,-1.636505127E-1,-1.896057129E-1,9.816314697E0,9.819509461E0
8.128967280E-1,-2.066650391E-1,-1.800842285E-1,9.773498535E0,9.777341887E0
8.152770990E-1,-1.779785156E-1,-1.848449707E-1,9.768737793E0,9.772107351E0
8.176574700E-1,-1.732025146E-1,-1.896057129E-1,9.792526245E0,9.795893002E0
8.200378420E-1,-1.732025146E-1,-1.896057129E-1,9.797286987E0,9.800652108E0
8.224182130E-1,-1.779785156E-1,-1.991119385E-1,9.759231567E0,9.762884958E0
8.247985840E-1,-1.875457764E-1,-2.133941650E-1,9.792526245E0,9.796646403E0
8.271484370E-1,-1.732025146E-1,-2.086334229E-1,9.768737793E0,9.772500452E0
8.295288080E-1,-1.779785156E-1,-1.943664551E-1,9.778244019E0,9.781794864E0
8.319091790E-1,-1.779785156E-1,-1.896057129E-1,9.759231567E0,9.762695707E0
8.342895500E-1,-1.779785156E-1,-1.896057129E-1,9.802047729E0,9.805496743E0
8.366699220E-1,-1.588592529E-1,-1.991119385E-1,9.806793213E0,9.810100659E0
8.390502930E-1,-2.019042969E-1,-1.943664551E-1,9.763992310E0,9.768013590E0
8.414306640E-1,-1.827697754E-1,-1.658020020E-1,9.792526245E0,9.795635015E0
8.438110350E-1,-1.779785156E-1,-1.515197754E-1,9.787780762E0,9.790571323E0
8.461914060E-1,-1.732025146E-1,-1.753234863E-1,9.811553955E0,9.814648667E0
8.485412590E-1,-1.540679932E-1,-1.896057129E-1,9.773498535E0,9.776551585E0
8.509216310E-1,-1.445159912E-1,-1.705627441E-1,9.773498535E0,9.776054937E0
8.533020020E-1,-1.684112549E-1,-1.800842285E-1,9.797286987E0,9.800389022E0
8.556823730E-1,-1.540679932E-1,-1.800842285E-1,9.778244019E0,9.781115650E0
8.580627440E-1,-1.684112549E-1,-1.705627441E-1,9.797286987E0,9.800218687E0
8.604431150E-1,-1.684112549E-1,-2.086334229E-1,9.811553955E0,9.815216822E0
8.628234860E-1,-1.349487305E-1,-1.467590332E-1,9.802047729E0,9.804075125E0
8.652038570E-1,-1.636505127E-1,-1.991119385E-1,9.778244019E0,9.781640105E0
8.675537110E-1,-1.492919922E-1,-1.991119385E-1,9.797286987E0,9.800447233E0
8.699340820E-1,-1.588592529E-1,-1.753234863E-1,9.773498535E0,9.776361706E0
8.723144530E-1,-1.779785156E-1,-2.038879395E-1,9.768737793E0,9.772486107E0
8.746948240E-1,-1.588592529E-1,-1.800842285E-1,9.797286987E0,9.800229533E0
8.770751950E-1,-1.875457764E-1,-1.896057129E-1,9.792526245E0,9.796157104E0
8.794555660E-1,-1.349487305E-1,-1.562805176E-1,9.797286987E0,9.799462591E0
8.818359370E-1,-1.684112549E-1,-1.991119385E-1,9.768737793E0,9.772218069E0
8.842163080E-1,-1.732025146E-1,-1.610412598E-1,9.802047729E0,9.804900463E0
8.865661620E-1,-1.971130371E-1,-1.848449707E-1,9.806793213E0,9.810515498E0
8.889465330E-1,-1.684112549E-1,-1.848449707E-1,9.768737793E0,9.771937785E0
8.913269040E-1,-2.019042969E-1,-1.943664551E-1,9.787780762E0,9.791792272E0
8.937072750E-1,-1.492919922E-1,-1.515197754E-1,9.821060181E0,9.823363447E0
8.960876460E-1,-1.827697754E-1,-1.515197754E-1,9.821060181E0,9.823929260E0
8.984680170E-1,-2.019042969E-1,-1.848449707E-1,9.768737793E0,9.772572388E0
9.008483880E-1,-1.636505127E-1,-2.133941650E-1,9.821060181E0,9.824741301E0
9.032287590E-1,-1.684112549E-1,-2.038879395E-1,9.825820923E0,9.829378894E0
9.056091310E-1,-1.684112549E-1,-1.753234863E-1,9.802047729E0,9.805061977E0
9.079589840E-1,-1.875457764E-1,-1.943664551E-1,9.840087891E0,9.843794057E0
9.103393550E-1,-1.875457764E-1,-1.658020020E-1,9.783004761E0,9.786206919E0
9.127197260E-1,-1.636505127E-1,-2.086334229E-1,9.811553955E0,9.815136291E0
9.151000970E-1,-1.923217773E-1,-1.800842285E-1,9.768737793E0,9.772290216E0
9.174804680E-1,-2.114562988E-1,-1.705627441E-1,9.744964600E0,9.748750713E0
9.198608400E-1,-2.066650391E-1,-1.896057129E-1,9.816314697E0,9.820320514E0
9.222412110E-1,-1.875457764E-1,-2.038879395E-1,9.783004761E0,9.786926272E0
9.246215820E-1,-1.827697754E-1,-1.896057129E-1,9.797286987E0,9.800825854E0
9.269714350E-1,-2.114562988E-1,-1.753234863E-1,9.778244019E0,9.782101419E0
9.293518060E-1,-1.779785156E-1,-1.991119385E-1,9.773498535E0,9.777146595E0
9.317321770E-1,-1.684112549E-1,-1.991119385E-1,9.792526245E0,9.795998069E0
9.341125490E-1,-1.827697754E-1,-1.896057129E-1,9.830566406E0,9.834093298E0
9.364929200E-1,-1.588592529E-1,-1.753234863E-1,9.811553955E0,9.814406024E0
9.388732910E-1,-1.684112549E-1,-1.991119385E-1,9.821060181E0,9.824521922E0
9.412536620E-1,-1.923217773E-1,-1.991119385E-1,9.797286987E0,9.801197148E0
9.436340330E-1,-1.971130371E-1,-2.133941650E-1,9.806793213E0,9.811094931E0
9.459838860E-1,-1.540679932E-1,-1.943664551E-1,9.811553955E0,9.814688292E0
9.483642580E-1,-1.540679932E-1,-1.991119385E-1,9.749725342E0,9.752975277E0
9.507446290E-1,-2.066650391E-1,-1.705627441E-1,9.783004761E0,9.786673809E0
9.531250000E-1,-1.684112549E-1,-1.610412598E-1,9.797286987E0,9.800057599E0
9.555053710E-1,-1.588592529E-1,-1.753234863E-1,9.763992310E0,9.766858267E0
9.578857420E-1,-1.732025146E-1,-1.848449707E-1,9.768737793E0,9.772021533E0
9.602661130E-1,-2.019042969E-1,-1.610412598E-1,9.783004761E0,9.786413121E0
9.626464840E-1,-1.827697754E-1,-1.753234863E-1,9.778244019E0,9.781523358E0
9.649963380E-1,-1.827697754E-1,-1.753234863E-1,9.768737793E0,9.772020323E0
9.673767090E-1,-2.019042969E-1,-1.991119385E-1,9.792526245E0,9.796631113E0
9.697570800E-1,-1.875457764E-1,-1.705627441E-1,9.797286987E0,9.800566176E0
9.721374510E-1,-1.923217773E-1,-1.896057129E-1,9.792526245E0,9.796249704E0
9.745178220E-1,-1.875457764E-1,-1.943664551E-1,9.811553955E0,9.815270895E0
9.768981930E-1,-1.923217773E-1,-1.515197754E-1,9.816314697E0,9.819367604E0
9.792785640E-1,-1.588592529E-1,-1.848449707E-1,9.802047729E0,9.805077441E0
9.816589350E-1,-1.492919922E-1,-2.086334229E-1,9.802047729E0,9.805404413E0
9.840393060E-1,-1.588592529E-1,-1.943664551E-1,9.802047729E0,9.805261561E0
9.863891600E-1,-1.827697754E-1,-1.800842285E-1,9.816314697E0,9.819667477E0
9.887695310E-1,-1.732025146E-1,-1.896057129E-1,9.792526245E0,9.795893002E0
9.911499020E-1,-1.875457764E-1,-1.800842285E-1,9.787780762E0,9.791233629E0
9.935302730E-1,-2.066650391E-1,-1.896057129E-1,9.754470825E0,9.758502029E0
9.959106440E-1,-1.732025146E-1,-1.753234863E-1,9.787780762E0,9.790882988E0
9.982910150E-1,-1.636505127E-1,-1.610412598E-1,9.744964600E0,9.747668994E0
1.000671386E0,-1.827697754E-1,-2.086334229E-1,9.778244019E0,9.782177098E0
1.003051758E0,-1.875457764E-1,-1.800842285E-1,9.830566406E0,9.834004251E0
1.005401611E0,-1.684112549E-1,-1.800842285E-1,9.787780762E0,9.790885809E0
1.007781982E0,-1.732025146E-1,-1.896057129E-1,9.778244019E0,9.781615691E0
1.010162353E0,-1.923217773E-1,-1.896057129E-1,9.797286987E0,9.801008637E0
1.012542724E0,-1.492919922E-1,-1.467590332E-1,9.835327148E0,9.837554901E0
1.014923095E0,-1.397247314E-1,-1.943664551E-1,9.797286987E0,9.800210897E0
1.017303467E0,-1.684112549E-1,-2.038879395E-1,9.778244019E0,9.781819295E0
1.019683838E0,-1.636505127E-1,-1.658020020E-1,9.806793213E0,9.809559874E0
1.022064209E0,-1.779785156E-1,-1.991119385E-1,9.783004761E0,9.786649277E0
1.024414062E0,-1.540679932E-1,-2.038879395E-1,9.811553955E0,9.814881469E0
1.026794433E0,-1.540679932E-1,-2.229156494E-1,9.811553955E0,9.815295174E0
1.029174804E0,-1.971130371E-1,-1.848449707E-1,9.778244019E0,9.781977167E0
1.031555175E0,-1.732025146E-1,-1.991119385E-1,9.773498535E0,9.777060821E0
1.033935547E0,-1.827697754E-1,-2.133941650E-1,9.768737793E0,9.772777493E0
1.036315918E0,-1.732025146E-1,-1.848449707E-1,9.792526245E0,9.795802011E0
1.038696289E0,-1.540679932E-1,-1.705627441E-1,9.787780762E0,9.790479091E0
1.041076660E0,-2.066650391E-1,-1.943664551E-1,9.744964600E0,9.749093486E0
1.043457031E0,-1.492919922E-1,-1.753234863E-1,9.783004761E0,9.785714515E0
1.045806884E0,-1.875457764E-1,-1.943664551E-1,9.835327148E0,9.839035108E0
1.048187256E0,-1.875457764E-1,-2.038879395E-1,9.778244019E0,9.782167439E0
1.050567627E0,-1.875457764E-1,-2.324523926E-1,9.821060181E0,9.825600776E0
1.052947998E0,-1.875457764E-1,-1.943664551E-1,9.844833374E0,9.848537754E0
1.055328369E0,-1.875457764E-1,-1.991119385E-1,9.816314697E0,9.820124908E0
1.057708740E0,-1.827697754E-1,-1.943664551E-1,9.768737793E0,9.772380528E0
1.060089111E0,-1.732025146E-1,-1.753234863E-1,9.806793213E0,9.809889426E0
1.062469482E0,-1.827697754E-1,-1.896057129E-1,9.806793213E0,9.810328651E0
1.064849853E0,-2.019042969E-1,-1.896057129E-1,9.768737793E0,9.772663595E0
1.067230224E0,-1.779785156E-1,-1.610412598E-1,9.816314697E0,9.819248692E0
1.069610595E0,-1.732025146E-1,-1.896057129E-1,9.806793213E0,9.810155073E0
1.071990967E0,-1.923217773E-1,-1.705627441E-1,9.787780762E0,9.791155782E0
1.074371338E0,-2.019042969E-1,-2.086334229E-1,9.759231567E0,9.763549254E0
1.076751709E0,-1.923217773E-1,-1.658020020E-1,9.749725342E0,9.753031437E0
1.079132080E0,-1.492919922E-1,-1.753234863E-1,9.830566406E0,9.833263054E0
1.081512451E0,-1.923217773E-1,-1.848449707E-1,9.787780762E0,9.791414993E0
1.083862304E0,-1.588592529E-1,-1.753234863E-1,9.749725342E0,9.752595492E0
1.086242675E0,-1.684112549E-1,-1.658020020E-1,9.816314697E0,9.819159174E0
1.088623047E0,-1.732025146E-1,-1.705627441E-1,9.802047729E0,9.805061471E0
1.091003418E0,-1.875457764E-1,-1.848449707E-1,9.773498535E0,9.777045295E0
1.093383789E0,-1.827697754E-1,-1.658020020E-1,9.792526245E0,9.795635015E0
1.095764160E0,-1.732025146E-1,-1.848449707E-1,9.806793213E0,9.810064215E0
1.098144531E0,-1.875457764E-1,-1.848449707E-1,9.797286987E0,9.800825138E0
1.100524902E0,-1.684112549E-1,-1.753234863E-1,9.802047729E0,9.805061977E0
1.102905273E0,-1.445159912E-1,-2.038879395E-1,9.806793213E0,9.809976977E0
1.105255127E0,-1.684112549E-1,-1.610412598E-1,9.802047729E0,9.804816996E0
1.107635498E0,-1.636505127E-1,-1.991119385E-1,9.802047729E0,9.805435571E0
1.110015869E0,-1.779785156E-1,-1.896057129E-1,9.797286987E0,9.800737676E0
1.112396240E0,-1.492919922E-1,-2.133941650E-1,9.835327148E0,9.838774583E0
1.114776611E0,-1.684112549E-1,-1.991119385E-1,9.821060181E0,9.824521922E0
1.117156982E0,-2.019042969E-1,-1.753234863E-1,9.778244019E0,9.781899599E0
1.119537353E0,-1.779785156E-1,-1.800842285E-1,9.802047729E0,9.805317250E0
1.121917724E0,-1.540679932E-1,-2.038879395E-1,9.792526245E0,9.795860223E0
1.124267578E0,-1.636505127E-1,-1.705627441E-1,9.792526245E0,9.795378676E0
1.126647949E0,-1.827697754E-1,-1.705627441E-1,9.740203857E0,9.743411498E0
1.129028320E0,-1.971130371E-1,-1.991119385E-1,9.792526245E0,9.796533539E0
1.131408691E0,-1.445159912E-1,-1.658020020E-1,9.783004761E0,9.785476857E0
1.133789062E0,-1.779785156E-1,-1.896057129E-1,9.802047729E0,9.805496743E0
1.136169433E0,-1.492919922E-1,-1.610412598E-1,9.835327148E0,9.837778332E0
1.138549804E0,-1.684112549E-1,-1.896057129E-1,9.783004761E0,9.786291168E0
1.140899658E0,-1.636505127E-1,-1.848449707E-1,9.797286987E0,9.800397005E0
1.143280029E0,-1.636505127E-1,-1.562805176E-1,9.825820923E0,9.828426217E0
1.145660400E0,-1.492919922E-1,-1.848449707E-1,9.806793213E0,9.809671191E0
1.148040771E0,-1.301574707E-1,-1.991119385E-1,9.802047729E0,9.804933769E0
1.150421142E0,-2.066650391E-1,-1.943664551E-1,9.821060181E0,9.825157089E0
1.152801513E0,-1.732025146E-1,-1.800842285E-1,9.811553955E0,9.814734864E0
1.155181884E0,-1.588592529E-1,-1.896057129E-1,9.797286987E0,9.800409119E0
1.157562256E0,-1.971130371E-1,-2.038879395E-1,9.773498535E0,9.777612053E0
1.159942627E0,-1.971130371E-1,-1.943664551E-1,9.806793213E0,9.810699516E0
1.162322998E0,-1.827697754E-1,-1.848449707E-1,9.773498535E0,9.776954847E0
1.164672851E0,-1.684112549E-1,-2.038879395E-1,9.763992310E0,9.767572803E0
1.167053222E0,-1.779785156E-1,-2.133941650E-1,9.778244019E0,9.782191447E0
1.169433593E0,-1.684112549E-1,-1.991119385E-1,9.821060181E0,9.824521922E0
1.171813965E0,-1.684112549E-1,-1.896057129E-1,9.778244019E0,9.781532025E0
1.174194336E0,-1.732025146E-1,-1.800842285E-1,9.773498535E0,9.776691826E0
1.176574707E0,-1.827697754E-1,-2.038879395E-1,9.821060181E0,9.824876496E0
1.178955078E0,-1.684112549E-1,-1.800842285E-1,9.792526245E0,9.795629788E0
1.181335449E0,-1.971130371E-1,-2.038879395E-1,9.773498535E0,9.777612053E0
1.183685302E0,-2.019042969E-1,-1.753234863E-1,9.787780762E0,9.791432781E0
1.186065674E0,-1.827697754E-1,-1.896057129E-1,9.816314697E0,9.819846707E0
1.188446045E0,-1.875457764E-1,-1.991119385E-1,9.773498535E0,9.777325432E0
1.190826416E0,-1.732025146E-1,-2.181701660E-1,9.773498535E0,9.777467512E0
1.193206787E0,-2.019042969E-1,-2.181701660E-1,9.773498535E0,9.778018060E0
1.195587158E0,-1.684112549E-1,-1.610412598E-1,9.797286987E0,9.800057599E0
1.197967529E0,-1.732025146E-1,-2.181701660E-1,9.768737793E0,9.772708703E0
1.200347900E0,-1.636505127E-1,-1.705627441E-1,9.806793213E0,9.809641495E0
1.202697754E0,-1.779785156E-1,-1.991119385E-1,9.802047729E0,9.805685168E0
1.205078125E0,-2.019042969E-1,-1.991119385E-1,9.797286987E0,9.801389862E0
1.207458496E0,-2.162475586E-1,-2.038879395E-1,9.783004761E0,9.787518350E0
1.209838867E0,-1.684112549E-1,-1.943664551E-1,9.792526245E0,9.795902762E0
1.212219238E0,-1.684112549E-1,-1.896057129E-1,9.783004761E0,9.786291168E0
1.214599609E0,-1.875457764E-1,-2.133941650E-1,9.778244019E0,9.782370192E0
1.216979980E0,-1.923217773E-1,-2.038879395E-1,9.778244019E0,9.782260171E0
1.219360351E0,-1.827697754E-1,-1.943664551E-1,9.806793213E0,9.810421817E0
1.221740722E0,-1.684112549E-1,-2.038879395E-1,9.825820923E0,9.829378894E0
1.224090576E0,-1.636505127E-1,-1.800842285E-1,9.759231567E0,9.762264727E0
1.226470947E0,-1.779785156E-1,-1.848449707E-1,9.802047729E0,9.805405841E0
1.228851318E0,-1.684112549E-1,-1.420135498E-1,9.806793213E0,9.809267216E0
1.231231689E0,-1.684112549E-1,-2.181701660E-1,9.763992310E0,9.767881367E0
1.233612060E0,-1.636505127E-1,-1.943664551E-1,9.787780762E0,9.791078186E0
1.235992431E0,-1.588592529E-1,-1.800842285E-1,9.783004761E0,9.785951601E0
1.238372802E0,-1.540679932E-1,-1.943664551E-1,9.773498535E0,9.776645073E0
1.240753174E0,-1.588592529E-1,-1.848449707E-1,9.806793213E0,9.809821458E0
1.243130492E0,-1.588592529E-1,-1.610412598E-1,9.802047729E0,9.804657579E0
1.245510863E0,-1.684112549E-1,-1.658020020E-1,9.830566406E0,9.833406761E0
1.247891234E0,-1.636505127E-1,-2.086334229E-1,9.806793213E0,9.810377287E0
1.250271605E0,-1.732025146E-1,-1.658020020E-1,9.797286987E0,9.800220494E0
1.252651976E0,-1.588592529E-1,-1.562805176E-1,9.797286987E0,9.799821028E0
1.255032348E0,-1.684112549E-1,-1.943664551E-1,9.783004761E0,9.786384563E0
1.257412719E0,-1.779785156E-1,-2.038879395E-1,9.787780762E0,9.791521786E0
1.259793090E0,-1.445159912E-1,-1.943664551E-1,9.816314697E0,9.819302288E0
1.262173461E0,-1.540679932E-1,-1.705627441E-1,9.783004761E0,9.785704407E0
1.264523314E0,-1.636505127E-1,-1.848449707E-1,9.768737793E0,9.771856897E0
1.266903685E0,-1.732025146E-1,-1.562805176E-1,9.754470825E0,9.757260056E0
1.269284057E0,-1.732025146E-1,-1.610412598E-1,9.797286987E0,9.800141107E0
1.271664428E0,-1.492919922E-1,-1.848449707E-1,9.787780762E0,9.790664329E0
1.274044799E0,-1.636505127E-1,-1.991119385E-1,9.811553955E0,9.814938516E0
1.276425170E0,-1.684112549E-1,-1.610412598E-1,9.816314697E0,9.819079940E0
1.278805541E0,-1.732025146E-1,-2.038879395E-1,9.821060181E0,9.824703175E0
1.281185912E0,-1.540679932E-1,-2.086334229E-1,9.778244019E0,9.781682930E0
1.283535765E0,-1.492919922E-1,-1.848449707E-1,9.759231567E0,9.762123568E0
1.285916137E0,-1.875457764E-1,-1.943664551E-1,9.802047729E0,9.805768273E0
1.288296508E0,-1.540679932E-1,-2.086334229E-1,9.783004761E0,9.786441999E0
1.290676879E0,-1.779785156E-1,-2.038879395E-1,9.778244019E0,9.781988690E0
1.293057250E0,-1.540679932E-1,-1.896057129E-1,9.811553955E0,9.814595167E0
1.295437621E0,-1.779785156E-1,-1.991119385E-1,9.797286987E0,9.800926192E0
1.297817992E0,-1.588592529E-1,-2.038879395E-1,9.792526245E0,9.795936750E0
1.300198363E0,-1.636505127E-1,-1.991119385E-1,9.797286987E0,9.800676475E0
1.302548217E0,-1.827697754E-1,-1.800842285E-1,9.806793213E0,9.810149247E0
1.304928588E0,-1.875457764E-1,-2.229156494E-1,9.811553955E0,9.815877741E0
1.307308959E0,-1.875457764E-1,-1.991119385E-1,9.783004761E0,9.786827940E0
1.309689330E0,-1.732025146E-1,-1.705627441E-1,9.783004761E0,9.786024367E0
1.312069701E0,-1.827697754E-1,-2.133941650E-1,9.811553955E0,9.815576034E0
1.314450072E0,-1.732025146E-1,-1.800842285E-1,9.773498535E0,9.776691826E0
1.316830443E0,-1.636505127E-1,-1.943664551E-1,9.763992310E0,9.767297765E0
1.319210814E0,-1.445159912E-1,-1.943664551E-1,9.787780762E0,9.790777060E0
1.321591185E0,-1.588592529E-1,-1.848449707E-1,9.806793213E0,9.809821458E0
1.323941039E0,-2.114562988E-1,-2.229156494E-1,9.759231567E0,9.764067080E0
1.326321410E0,-1.636505127E-1,-1.991119385E-1,9.778244019E0,9.781640105E0
1.328701781E0,-1.779785156E-1,-1.896057129E-1,9.759231567E0,9.762695707E0
1.331082152E0,-1.875457764E-1,-1.800842285E-1,9.759231567E0,9.762694532E0
1.333462523E0,-1.732025146E-1,-1.943664551E-1,9.763992310E0,9.767462478E0
1.335842894E0,-2.019042969E-1,-1.848449707E-1,9.849609375E0,9.853412498E0
1.338223265E0,-2.066650391E-1,-1.896057129E-1,9.802047729E0,9.806059374E0
1.340603637E0,-2.019042969E-1,-1.848449707E-1,9.787780762E0,9.791607899E0
1.342953490E0,-1.732025146E-1,-1.848449707E-1,9.802047729E0,9.805320314E0
1.345333861E0,-1.732025146E-1,-1.848449707E-1,9.825820923E0,9.829085592E0
1.347714232E0,-1.636505127E-1,-1.848449707E-1,9.806793213E0,9.809900217E0
1.350094603E0,-1.971130371E-1,-1.943664551E-1,9.797286987E0,9.801197079E0
1.352474974E0,-1.827697754E-1,-1.705627441E-1,9.840087891E0,9.843262982E0
1.354855346E0,-1.779785156E-1,-1.753234863E-1,9.802047729E0,9.805230970E0
1.357235717E0,-1.684112549E-1,-2.133941650E-1,9.797286987E0,9.801057684E0
1.359616088E0,-1.588592529E-1,-1.943664551E-1,9.806793213E0,9.810005489E0
1.361996459E0,-1.636505127E-1,-1.991119385E-1,9.792526245E0,9.795917380E0
1.364376830E0,-1.492919922E-1,-1.753234863E-1,9.783004761E0,9.785714515E0
1.366757201E0,-2.066650391E-1,-1.800842285E-1,9.759231567E0,9.763080536E0
1.369137572E0,-1.875457764E-1,-1.753234863E-1,9.792526245E0,9.795891078E0
1.371517943E0,-1.779785156E-1,-1.467590332E-1,9.811553955E0,9.814265412E0
1.373898314E0,-1.492919922E-1,-1.896057129E-1,9.792526245E0,9.795499410E0
1.376278685E0,-1.684112549E-1,-2.086334229E-1,9.821060181E0,9.824719504E0
1.378659057E0,-1.636505127E-1,-1.658020020E-1,9.816314697E0,9.819078675E0
1.381039428E0,-1.684112549E-1,-1.943664551E-1,9.787780762E0,9.791158916E0
1.383389281E0,-1.779785156E-1,-1.991119385E-1,9.797286987E0,9.800926192E0
1.385769652E0,-1.827697754E-1,-1.800842285E-1,9.802047729E0,9.805405387E0
1.388150023E0,-1.875457764E-1,-2.086334229E-1,9.849609375E0,9.853603715E0
1.390530394E0,-1.827697754E-1,-2.133941650E-1,9.797286987E0,9.801314921E0
1.392910765E0,-1.971130371E-1,-1.991119385E-1,9.821060181E0,9.825055836E0
1.395291137E0,-1.732025146E-1,-1.943664551E-1,9.792526245E0,9.795986305E0
1.397671508E0,-1.827697754E-1,-1.800842285E-1,9.792526245E0,9.795887167E0
1.400051879E0,-1.875457764E-1,-1.991119385E-1,9.816314697E0,9.820124908E0
1.402401732E0,-1.827697754E-1,-1.562805176E-1,9.768737793E0,9.771697215E0
1.404782103E0,-1.636505127E-1,-1.753234863E-1,9.802047729E0,9.804981362E0
1.407162474E0,-1.397247314E-1,-2.086334229E-1,9.811553955E0,9.814766524E0
1.409542846E0,-1.923217773E-1,-2.038879395E-1,9.806793213E0,9.810797678E0
1.411923217E0,-1.588592529E-1,-1.705627441E-1,9.811553955E0,9.814322133E0
1.414303588E0,-1.492919922E-1,-2.086334229E-1,9.783004761E0,9.786367976E0
1.416683959E0,-1.827697754E-1,-1.896057129E-1,9.802047729E0,9.805584878E0
1.419064330E0,-1.923217773E-1,-1.705627441E-1,9.802047729E0,9.805417839E0
1.421414183E0,-1.540679932E-1,-1.943664551E-1,9.773498535E0,9.776645073E0
1.423794555E0,-1.636505127E-1,-1.896057129E-1,9.759231567E0,9.762445011E0
1.426174926E0,-1.779785156E-1,-2.038879395E-1,9.773498535E0,9.777245024E0
1.428555297E0,-1.732025146E-1,-1.800842285E-1,9.787780762E0,9.790969394E0
1.430935668E0,-1.779785156E-1,-1.753234863E-1,9.749725342E0,9.752925659E0
1.433316039E0,-1.827697754E-1,-1.658020020E-1,9.759231567E0,9.762350940E0
1.435696410E0,-1.971130371E-1,-2.038879395E-1,9.797286987E0,9.801390521E0
1.438076781E0,-1.636505127E-1,-1.943664551E-1,9.778244019E0,9.781544658E0
1.440457152E0,-1.636505127E-1,-2.086334229E-1,9.773498535E0,9.777094815E0
1.442807006E0,-1.875457764E-1,-1.800842285E-1,9.811553955E0,9.814998460E0
1.445187377E0,-1.636505127E-1,-1.800842285E-1,9.816314697E0,9.819330224E0
1.447567748E0,-1.779785156E-1,-1.943664551E-1,9.811553955E0,9.815092750E0
1.449948119E0,-1.684112549E-1,-1.848449707E-1,9.811553955E0,9.814739988E0
1.452328490E0,-1.923217773E-1,-1.848449707E-1,9.816314697E0,9.819938369E0
1.454708861E0,-1.636505127E-1,-1.753234863E-1,9.802047729E0,9.804981362E0
1.457089232E0,-1.684112549E-1,-1.800842285E-1,9.802047729E0,9.805148259E0
1.459469603E0,-1.732025146E-1,-1.943664551E-1,9.797286987E0,9.800745367E0
1.461819457E0,-1.636505127E-1,-1.943664551E-1,9.806793213E0,9.810084247E0
1.464199828E0,-1.779785156E-1,-1.800842285E-1,9.744964600E0,9.748253266E0
1.466580199E0,-1.732025146E-1,-1.896057129E-1,9.816314697E0,9.819673298E0
1.468960570E0,-1.875457764E-1,-1.753234863E-1,9.797286987E0,9.800650185E0
1.471340941E0,-1.732025146E-1,-1.896057129E-1,9.773498535E0,9.776871844E0
1.473721312E0,-1.588592529E-1,-2.324523926E-1,9.768737793E0,9.772794301E0
1.476101683E0,-1.923217773E-1,-1.943664551E-1,9.783004761E0,9.786825233E0
1.478482055E0,-1.636505127E-1,-1.800842285E-1,9.806793213E0,9.809811667E0
1.480831908E0,-1.779785156E-1,-2.181701660E-1,9.778244019E0,9.782296799E0
1.483212279E0,-1.827697754E-1,-1.705627441E-1,9.783004761E0,9.786198373E0
1.485592650E0,-1.492919922E-1,-1.800842285E-1,9.802047729E0,9.804838506E0
1.487973021E0,-1.684112549E-1,-2.133941650E-1,9.797286987E0,9.801057684E0
1.490353392E0,-1.732025146E-1,-2.086334229E-1,9.773498535E0,9.777259362E0
1.492733764E0,-1.732025146E-1,-1.658020020E-1,9.802047729E0,9.804979812E0
1.495114135E0,-1.540679932E-1,-1.943664551E-1,9.830566406E0,9.833694684E0
1.497494506E0,-1.445159912E-1,-1.943664551E-1,9.792526245E0,9.795521091E0
1.499874877E0,-1.540679932E-1,-1.943664551E-1,9.792526245E0,9.795666671E0
1.502224730E0,-1.684112549E-1,-1.658020020E-1,9.840087891E0,9.842925498E0
1.504605101E0,-1.779785156E-1,-1.800842285E-1,9.830566406E0,9.833826445E0
1.506985473E0,-1.540679932E-1,-2.038879395E-1,9.806793213E0,9.810122342E0
1.509365844E0,-1.732025146E-1,-1.896057129E-1,9.802047729E0,9.805411217E0
1.511746215E0,-1.684112549E-1,-1.658020020E-1,9.763992310E0,9.766852025E0
1.514126586E0,-1.492919922E-1,-1.658020020E-1,9.773498535E0,9.776044804E0
1.516506957E0,-1.636505127E-1,-1.896057129E-1,9.792526245E0,9.795728767E0
1.518887328E0,-1.732025146E-1,-1.800842285E-1,9.778244019E0,9.781435760E0
1.521237182E0,-1.732025146E-1,-1.991119385E-1,9.759231567E0,9.762799059E0
1.523617553E0,-1.827697754E-1,-1.943664551E-1,9.754470825E0,9.758118886E0
1.525997924E0,-1.827697754E-1,-1.896057129E-1,9.811553955E0,9.815087678E0
1.528378295E0,-1.540679932E-1,-1.991119385E-1,9.840087891E0,9.843307991E0
1.530758666E0,-1.588592529E-1,-1.896057129E-1,9.778244019E0,9.781372229E0
1.533139037E0,-1.779785156E-1,-2.229156494E-1,9.768737793E0,9.772901606E0
1.535519408E0,-1.779785156E-1,-1.991119385E-1,9.825820923E0,9.829449564E0
1.537899779E0,-1.732025146E-1,-1.896057129E-1,9.825820923E0,9.829176275E0
1.540249633E0,-1.588592529E-1,-1.991119385E-1,9.802047729E0,9.805356777E0
1.542630004E0,-1.684112549E-1,-1.800842285E-1,9.811553955E0,9.814651481E0
1.545010375E0,-1.684112549E-1,-2.038879395E-1,9.802047729E0,9.805614327E0
1.547390746E0,-1.779785156E-1,-1.800842285E-1,9.768737793E0,9.772018458E0
1.549771117E0,-1.779785156E-1,-1.658020020E-1,9.797286987E0,9.800306065E0
1.552151488E0,-1.875457764E-1,-1.896057129E-1,9.811553955E0,9.815177775E0
1.554531859E0,-1.636505127E-1,-1.800842285E-1,9.806793213E0,9.809811667E0
1.556912230E0,-1.827697754E-1,-1.705627441E-1,9.773498535E0,9.776695252E0
1.559262084E0,-1.827697754E-1,-1.991119385E-1,9.835327148E0,9.839040119E0
1.561642455E0,-1.875457764E-1,-1.896057129E-1,9.802047729E0,9.805675063E0
1.564022826E0,-1.349487305E-1,-2.086334229E-1,9.802047729E0,9.805196518E0
1.566403197E0,-1.684112549E-1,-2.038879395E-1,9.773498535E0,9.777075547E0
1.568783568E0,-1.827697754E-1,-1.705627441E-1,9.806793213E0,9.809979081E0
1.571163939E0,-2.019042969E-1,-1.991119385E-1,9.806793213E0,9.810892112E0
1.573544310E0,-1.636505127E-1,-1.896057129E-1,9.763992310E0,9.767204187E0
1.575924682E0,-1.827697754E-1,-2.038879395E-1,9.783004761E0,9.786835915E0
1.578305053E0,-1.636505127E-1,-1.943664551E-1,9.787780762E0,9.791078186E0
1.580654906E0,-1.779785156E-1,-1.991119385E-1,9.787780762E0,9.791423500E0
1.583035277E0,-1.588592529E-1,-1.848449707E-1,9.763992310E0,9.767033825E0
1.585415648E0,-1.779785156E-1,-1.753234863E-1,9.773498535E0,9.776691071E0
1.587796019E0,-1.779785156E-1,-1.848449707E-1,9.821060181E0,9.824411793E0
1.590176390E0,-1.875457764E-1,-1.896057129E-1,9.773498535E0,9.777136460E0
1.592556762E0,-1.827697754E-1,-1.943664551E-1,9.802047729E0,9.805678090E0
1.594937133E0,-1.684112549E-1,-1.896057129E-1,9.849609375E0,9.852873566E0
1.597317504E0,-1.875457764E-1,-2.086334229E-1,9.811553955E0,9.815563781E0
1.599667357E0,-1.779785156E-1,-2.038879395E-1,9.792526245E0,9.796265457E0
1.602047728E0,-1.971130371E-1,-1.848449707E-1,9.787780762E0,9.791510274E0
1.604428099E0,-1.732025146E-1,-1.943664551E-1,9.811553955E0,9.815007307E0
1.606808471E0,-1.492919922E-1,-1.943664551E-1,9.787780762E0,9.790848720E0
1.609188842E0,-1.875457764E-1,-1.991119385E-1,9.825820923E0,9.829627449E0
1.611569213E0,-1.684112549E-1,-1.610412598E-1,9.797286987E0,9.800057599E0
1.613949584E0,-1.540679932E-1,-1.896057129E-1,9.773498535E0,9.776551585E0
1.616329955E0,-1.779785156E-1,-1.800842285E-1,9.792526245E0,9.795798944E0
1.618679808E0,-1.827697754E-1,-2.181701660E-1,9.811553955E0,9.815681027E0
1.621060180E0,-1.588592529E-1,-1.991119385E-1,9.806793213E0,9.810100659E0
1.623440551E0,-1.540679932E-1,-1.943664551E-1,9.763992310E0,9.767141910E0
1.625820922E0,-1.923217773E-1,-1.848449707E-1,9.783004761E0,9.786640766E0
1.628201293E0,-1.732025146E-1,-1.991119385E-1,9.821060181E0,9.824605221E0
1.630581664E0,-1.875457764E-1,-1.753234863E-1,9.792526245E0,9.795891078E0
1.632962035E0,-1.492919922E-1,-2.038879395E-1,9.773498535E0,9.776764905E0
1.635342406E0,-1.732025146E-1,-1.658020020E-1,9.806793213E0,9.809723877E0
1.637722777E0,-1.636505127E-1,-1.705627441E-1,9.816314697E0,9.819160217E0
1.640103148E0,-1.588592529E-1,-1.705627441E-1,9.773498535E0,9.776277488E0
1.642483519E0,-1.684112549E-1,-1.515197754E-1,9.778244019E0,9.780867890E0
1.644863890E0,-1.540679932E-1,-1.753234863E-1,9.802047729E0,9.804826106E0
1.647244262E0,-1.445159912E-1,-1.896057129E-1,9.787780762E0,9.790683706E0
1.649624633E0,-1.827697754E-1,-2.038879395E-1,9.806793213E0,9.810615078E0
1.652005004E0,-1.923217773E-1,-1.896057129E-1,9.778244019E0,9.781972913E0
1.654385375E0,-1.445159912E-1,-1.753234863E-1,9.802047729E0,9.804680662E0
1.656765746E0,-1.492919922E-1,-1.943664551E-1,9.802047729E0,9.805111224E0
1.659115599E0,-1.684112549E-1,-2.133941650E-1,9.759231567E0,9.763016962E0
1.661495971E0,-1.732025146E-1,-1.610412598E-1,9.778244019E0,9.781103695E0
1.663876342E0,-1.492919922E-1,-1.848449707E-1,9.783004761E0,9.785889735E0
1.666256713E0,-1.684112549E-1,-1.705627441E-1,9.749725342E0,9.752671339E0
1.668637084E0,-1.684112549E-1,-1.800842285E-1,9.763992310E0,9.767104919E0
1.671017455E0,-1.732025146E-1,-1.753234863E-1,9.787780762E0,9.790882988E0
1.673397826E0,-1.492919922E-1,-1.753234863E-1,9.754470825E0,9.757188504E0
1.675778197E0,-1.540679932E-1,-1.991119385E-1,9.763992310E0,9.767237497E0
1.678128051E0,-1.636505127E-1,-1.848449707E-1,9.759231567E0,9.762353709E0
1.680508422E0,-1.827697754E-1,-1.943664551E-1,9.773498535E0,9.777139496E0
1.682888793E0,-1.779785156E-1,-1.705627441E-1,9.763992310E0,9.767103656E0
1.685269164E0,-1.684112549E-1,-1.943664551E-1,9.778244019E0,9.781625466E0
1.687649535E0,-1.779785156E-1,-1.848449707E-1,9.816314697E0,9.819667930E0
1.690029906E0,-1.588592529E-1,-2.038879395E-1,9.797286987E0,9.800695836E0
1.692410277E0,-1.923217773E-1,-1.705627441E-1,9.778244019E0,9.781622330E0
1.694790648E0,-1.875457764E-1,-1.800842285E-1,9.802047729E0,9.805495573E0
1.697171019E0,-1.684112549E-1,-2.038879395E-1,9.783004761E0,9.786578298E0
1.699520873E0,-1.636505127E-1,-1.991119385E-1,9.783004761E0,9.786399195E0
1.701901244E0,-1.923217773E-1,-1.610412598E-1,9.802047729E0,9.805256837E0
1.704281615E0,-1.732025146E-1,-1.848449707E-1,9.768737793E0,9.772021533E0
1.706661986E0,-1.636505127E-1,-2.133941650E-1,9.783004761E0,9.786700195E0
1.709042357E0,-2.066650391E-1,-1.753234863E-1,9.768737793E0,9.772496448E0
1.711422728E0,-1.636505127E-1,-1.800842285E-1,9.821060181E0,9.824074251E0
1.713803099E0,-1.827697754E-1,-1.658020020E-1,9.778244019E0,9.781357328E0
1.716183471E0,-1.875457764E-1,-1.896057129E-1,9.773498535E0,9.777136460E0
1.718533324E0,-1.875457764E-1,-1.658020020E-1,9.802047729E0,9.805243669E0
1.720913695E0,-2.114562988E-1,-1.562805176E-1,9.825820923E0,9.829338440E0
1.723294066E0,-1.827697754E-1,-1.896057129E-1,9.802047729E0,9.805584878E0
1.725674437E0,-2.114562988E-1,-2.086334229E-1,9.797286987E0,9.801789326E0
1.728054808E0,-2.019042969E-1,-1.943664551E-1,9.783004761E0,9.787018229E0
1.730435180E0,-1.636505127E-1,-1.943664551E-1,9.816314697E0,9.819602540E0
1.732815551E0,-1.732025146E-1,-2.086334229E-1,9.806793213E0,9.810541276E0
1.735195922E0,-1.923217773E-1,-2.086334229E-1,9.778244019E0,9.782360229E0
1.737576293E0,-1.732025146E-1,-1.658020020E-1,9.802047729E0,9.804979812E0
1.739926146E0,-2.019042969E-1,-1.848449707E-1,9.783004761E0,9.786833766E0
1.742306517E0,-1.732025146E-1,-1.562805176E-1,9.754470825E0,9.757260056E0
1.744686889E0,-1.540679932E-1,-1.896057129E-1,9.806793213E0,9.809835900E0
1.747067260E0,-1.732025146E-1,-1.753234863E-1,9.802047729E0,9.805145441E0
1.749447631E0,-1.971130371E-1,-1.896057129E-1,9.816314697E0,9.820124139E0
1.751828002E0,-1.827697754E-1,-1.562805176E-1,9.792526245E0,9.795478480E0
1.754208373E0,-1.540679932E-1,-2.038879395E-1,9.773498535E0,9.776839001E0
1.756588744E0,-1.540679932E-1,-1.896057129E-1,9.806793213E0,9.809835900E0
1.758938598E0,-1.875457764E-1,-1.562805176E-1,9.802047729E0,9.805087287E0
1.761318969E0,-1.875457764E-1,-1.324768066E-1,9.830566406E0,9.833247652E0
1.763699340E0,-1.636505127E-1,-1.848449707E-1,9.806793213E0,9.809900217E0
1.766079711E0,-1.540679932E-1,-1.848449707E-1,9.792526245E0,9.795482371E0
1.768460082E0,-1.779785156E-1,-2.038879395E-1,9.806793213E0,9.810526987E0
1.770840453E0,-1.492919922E-1,-1.467590332E-1,9.792526245E0,9.794763732E0
1.773220824E0,-1.684112549E-1,-2.038879395E-1,9.778244019E0,9.781819295E0
1.775601195E0,-1.779785156E-1,-1.943664551E-1,9.778244019E0,9.781794864E0
1.777951049E0,-1.684112549E-1,-1.848449707E-1,9.830566406E0,9.833746279E0
1.780331420E0,-1.540679932E-1,-1.705627441E-1,9.816314697E0,9.819005185E0
1.782711791E0,-1.636505127E-1,-1.848449707E-1,9.792526245E0,9.795637775E0
1.785092162E0,-1.779785156E-1,-2.038879395E-1,9.802047729E0,9.805783311E0
1.787472533E0,-1.779785156E-1,-2.038879395E-1,9.797286987E0,9.801024383E0
1.789852904E0,-1.827697754E-1,-1.705627441E-1,9.773498535E0,9.776695252E0
1.792233275E0,-1.732025146E-1,-2.086334229E-1,9.806793213E0,9.810541276E0
1.794613646E0,-1.445159912E-1,-1.943664551E-1,9.787780762E0,9.790777060E0
1.796994017E0,-1.540679932E-1,-2.038879395E-1,9.821060181E0,9.824384475E0
1.799343871E0,-1.779785156E-1,-1.848449707E-1,9.768737793E0,9.772107351E0
1.801724242E0,-1.492919922E-1,-1.753234863E-1,9.806793213E0,9.809496396E0
1.804104613E0,-1.732025146E-1,-2.276763916E-1,9.802047729E0,9.806221257E0
1.806484984E0,-1.445159912E-1,-1.991119385E-1,9.806793213E0,9.809878876E0
1.808865355E0,-1.492919922E-1,-1.800842285E-1,9.797286987E0,9.800079119E0
1.811245726E0,-1.636505127E-1,-2.038879395E-1,9.797286987E0,9.800774668E0
1.813626098E0,-1.636505127E-1,-1.800842285E-1,9.768737793E0,9.771768002E0
1.816006469E0,-1.636505127E-1,-1.943664551E-1,9.783004761E0,9.786303794E0
1.818356322E0,-1.588592529E-1,-1.848449707E-1,9.763992310E0,9.767033825E0
1.820736693E0,-1.732025146E-1,-1.848449707E-1,9.811553955E0,9.814823370E0
1.823117064E0,-1.779785156E-1,-1.848449707E-1,9.773498535E0,9.776866453E0
1.825497435E0,-1.875457764E-1,-1.943664551E-1,9.783004761E0,9.786732544E0
1.827877807E0,-1.827697754E-1,-1.991119385E-1,9.783004761E0,9.786737582E0
1.830258178E0,-1.588592529E-1,-2.133941650E-1,9.787780762E0,9.791395486E0
1.832638549E0,-2.019042969E-1,-1.896057129E-1,9.806793213E0,9.810703787E0
1.835018920E0,-1.636505127E-1,-2.229156494E-1,9.802047729E0,9.805947816E0
1.837368773E0,-1.971130371E-1,-1.991119385E-1,9.802047729E0,9.806051132E0
1.839749144E0,-2.019042969E-1,-1.943664551E-1,9.783004761E0,9.787018229E0
1.842129515E0,-2.019042969E-1,-2.086334229E-1,9.802047729E0,9.806346564E0
1.844509887E0,-1.971130371E-1,-2.038879395E-1,9.792526245E0,9.796631773E0
1.846890258E0,-1.827697754E-1,-1.896057129E-1,9.797286987E0,9.800825854E0
1.849270629E0,-1.875457764E-1,-2.038879395E-1,9.802047729E0,9.805961626E0
1.851651000E0,-1.732025146E-1,-1.896057129E-1,9.811553955E0,9.814914185E0
1.854031371E0,-1.923217773E-1,-1.943664551E-1,9.797286987E0,9.801101892E0
1.856381224E0,-1.875457764E-1,-2.038879395E-1,9.768737793E0,9.772665029E0
1.858761596E0,-2.019042969E-1,-2.038879395E-1,9.768737793E0,9.772951126E0
1.861141967E0,-1.971130371E-1,-1.991119385E-1,9.816314697E0,9.820312284E0
1.863522338E0,-1.923217773E-1,-1.753234863E-1,9.787780762E0,9.791239872E0
1.865902709E0,-1.684112549E-1,-1.991119385E-1,9.759231567E0,9.762715232E0
1.868283080E0,-1.827697754E-1,-1.705627441E-1,9.816314697E0,9.819497476E0
1.870663451E0,-1.636505127E-1,-1.753234863E-1,9.811553955E0,9.814484746E0
1.873043822E0,-1.779785156E-1,-1.896057129E-1,9.802047729E0,9.805496743E0
1.875424193E0,-2.114562988E-1,-1.562805176E-1,9.768737793E0,9.772275857E0
1.877774047E0,-1.827697754E-1,-1.562805176E-1,9.773498535E0,9.776456516E0
1.880154418E0,-1.923217773E-1,-1.896057129E-1,9.811553955E0,9.815270195E0
1.882534789E0,-1.588592529E-1,-2.038879395E-1,9.816314697E0,9.819716940E0
1.884915160E0,-1.779785156E-1,-1.800842285E-1,9.825820923E0,9.829082535E0
1.887295531E0,-1.349487305E-1,-2.038879395E-1,9.816314697E0,9.819359230E0
1.889675902E0,-1.684112549E-1,-2.086334229E-1,9.778244019E0,9.781919359E0
1.892056273E0,-1.397247314E-1,-2.086334229E-1,9.783004761E0,9.786226702E0
1.894436644E0,-1.636505127E-1,-1.943664551E-1,9.792526245E0,9.795822072E0
1.896786498E0,-1.636505127E-1,-1.658020020E-1,9.787780762E0,9.790552795E0
1.899166869E0,-1.732025146E-1,-1.896057129E-1,9.792526245E0,9.795893002E0
1.901547240E0,-1.588592529E-1,-1.753234863E-1,9.778244019E0,9.781105800E0
1.903927611E0,-1.779785156E-1,-1.896057129E-1,9.783004761E0,9.786460485E0
1.906307982E0,-1.588592529E-1,-1.753234863E-1,9.806793213E0,9.809646666E0
1.908688353E0,-1.540679932E-1,-1.800842285E-1,9.787780762E0,9.790649596E0
1.911068724E0,-1.492919922E-1,-1.753234863E-1,9.787780762E0,9.790489194E0
1.913449096E0,-1.779785156E-1,-1.705627441E-1,9.783004761E0,9.786110062E0
1.915798949E0,-1.875457764E-1,-1.896057129E-1,9.749725342E0,9.753372134E0
1.918179320E0,-1.779785156E-1,-2.086334229E-1,9.792526245E0,9.796365373E0
1.920559691E0,-1.540679932E-1,-1.896057129E-1,9.773498535E0,9.776551585E0
1.922940062E0,-1.397247314E-1,-1.800842285E-1,9.763992310E0,9.766652403E0
1.925320433E0,-1.779785156E-1,-2.038879395E-1,9.802047729E0,9.805783311E0
1.927700805E0,-1.875457764E-1,-1.800842285E-1,9.816314697E0,9.819757532E0
1.930081176E0,-1.684112549E-1,-1.896057129E-1,9.797286987E0,9.800568605E0
1.932461547E0,-1.636505127E-1,-1.896057129E-1,9.787780762E0,9.790984836E0
1.934841918E0,-1.684112549E-1,-1.896057129E-1,9.821060181E0,9.824333858E0
1.937222289E0,-1.827697754E-1,-1.991119385E-1,9.787780762E0,9.791511762E0
1.939602660E0,-1.827697754E-1,-2.133941650E-1,9.778244019E0,9.782279793E0
1.941983031E0,-1.588592529E-1,-2.133941650E-1,9.792526245E0,9.796139219E0
1.944363402E0,-1.636505127E-1,-1.800842285E-1,9.821060181E0,9.824074251E0
1.946743773E0,-1.636505127E-1,-1.753234863E-1,9.802047729E0,9.804981362E0
1.949124144E0,-1.971130371E-1,-1.800842285E-1,9.773498535E0,9.777144649E0
1.951504515E0,-1.827697754E-1,-1.705627441E-1,9.797286987E0,9.800475945E0
1.953884887E0,-1.636505127E-1,-1.610412598E-1,9.830566406E0,9.833247258E0
1.956234740E0,-2.019042969E-1,-1.800842285E-1,9.792526245E0,9.796262856E0
1.958615111E0,-2.019042969E-1,-1.753234863E-1,9.816314697E0,9.819956105E0
1.960995482E0,-1.971130371E-1,-1.848449707E-1,9.811553955E0,9.815274435E0
1.963375853E0,-1.540679932E-1,-1.943664551E-1,9.787780762E0,9.790922710E0
1.965756224E0,-1.827697754E-1,-1.705627441E-1,9.783004761E0,9.786198373E0
1.968136596E0,-1.971130371E-1,-1.753234863E-1,9.797286987E0,9.800837933E0
1.970516967E0,-1.875457764E-1,-1.848449707E-1,9.787780762E0,9.791322348E0
1.972897338E0,-1.875457764E-1,-1.800842285E-1,9.763992310E0,9.767453587E0
1.975247191E0,-1.827697754E-1,-1.991119385E-1,9.768737793E0,9.772476064E0
1.977627562E0,-2.066650391E-1,-1.753234863E-1,9.778244019E0,9.781999021E0
1.980007933E0,-2.019042969E-1,-2.133941650E-1,9.783004761E0,9.787414601E0
1.982388305E0,-1.684112549E-1,-1.943664551E-1,9.816314697E0,9.819683035E0
1.984768676E0,-1.971130371E-1,-1.848449707E-1,9.806793213E0,9.810515498E0
1.987149047E0,-1.779785156E-1,-1.658020020E-1,9.806793213E0,9.809809365E0
1.989529418E0,-1.923217773E-1,-2.038879395E-1,9.797286987E0,9.801295336E0
1.991909789E0,-2.114562988E-1,-1.800842285E-1,9.783004761E0,9.786946727E0
1.994290160E0,-1.732025146E-1,-1.943664551E-1,9.835327148E0,9.838772156E0
1.996640014E0,-1.779785156E-1,-1.800842285E-1,9.787780762E0,9.791055046E0
1.999020385E0,-1.971130371E-1,-2.038879395E-1,9.787780762E0,9.791888280E0
2.001400756E0,-1.732025146E-1,-1.658020020E-1,9.830566406E0,9.833489985E0
2.003781127E0,-1.684112549E-1,-1.848449707E-1,9.797286987E0,9.800477658E0
2.006161498E0,-1.875457764E-1,-1.896057129E-1,9.811553955E0,9.815177775E0
2.008541869E0,-1.779785156E-1,-1.896057129E-1,9.773498535E0,9.776957620E0
2.010922240E0,-1.732025146E-1,-1.943664551E-1,9.825820923E0,9.829269263E0
2.013302611E0,-1.684112549E-1,-2.133941650E-1,9.802047729E0,9.805816596E0
2.015652465E0,-1.540679932E-1,-1.896057129E-1,9.783004761E0,9.786054845E0
2.018032836E0,-1.827697754E-1,-1.848449707E-1,9.773498535E0,9.776954847E0
2.020413207E0,-1.445159912E-1,-1.848449707E-1,9.792526245E0,9.795336788E0
2.022793578E0,-1.636505127E-1,-1.991119385E-1,9.763992310E0,9.767393351E0
2.025173949E0,-1.492919922E-1,-1.896057129E-1,9.802047729E0,9.805018007E0
2.027554320E0,-1.588592529E-1,-1.705627441E-1,9.773498535E0,9.776277488E0
2.029934691E0,-1.397247314E-1,-1.896057129E-1,9.797286987E0,9.800117634E0
2.032315062E0,-1.779785156E-1,-1.991119385E-1,9.763992310E0,9.767643919E0
2.034664916E0,-1.684112549E-1,-1.848449707E-1,9.806793213E0,9.809980792E0
2.037045287E0,-1.827697754E-1,-1.943664551E-1,9.802047729E0,9.805678090E0
2.039425658E0,-1.684112549E-1,-1.658020020E-1,9.768737793E0,9.771596119E0
2.041806029E0,-1.732025146E-1,-1.753234863E-1,9.802047729E0,9.805145441E0
2.044186400E0,-1.636505127E-1,-1.610412598E-1,9.811553955E0,9.814240001E0
2.046566771E0,-1.540679932E-1,-1.991119385E-1,9.768737793E0,9.771981405E0
2.048947142E0,-1.588592529E-1,-1.800842285E-1,9.754470825E0,9.757426283E0
2.051327514E0,-1.971130371E-1,-1.848449707E-1,9.797286987E0,9.801012883E0
2.053707885E0,-1.732025146E-1,-1.705627441E-1,9.816314697E0,9.819324060E0
2.056057738E0,-1.684112549E-1,-1.943664551E-1,9.802047729E0,9.805420968E0
2.058438109E0,-1.636505127E-1,-1.991119385E-1,9.811553955E0,9.814938516E0
2.060818480E0,-1.588592529E-1,-1.800842285E-1,9.797286987E0,9.800229533E0
2.063198851E0,-1.636505127E-1,-2.038879395E-1,9.797286987E0,9.800774668E0
2.065579223E0,-1.827697754E-1,-1.991119385E-1,9.787780762E0,9.791511762E0
2.067959594E0,-1.540679932E-1,-1.800842285E-1,9.792526245E0,9.795393690E0
2.070339965E0,-1.445159912E-1,-1.753234863E-1,9.787780762E0,9.790417531E0
2.072720336E0,-1.875457764E-1,-1.753234863E-1,9.792526245E0,9.795891078E0
2.075070189E0,-1.923217773E-1,-2.038879395E-1,9.773498535E0,9.777516636E0
2.077450560E0,-2.019042969E-1,-1.896057129E-1,9.787780762E0,9.791698929E0
2.079830932E0,-1.827697754E-1,-1.848449707E-1,9.759231567E0,9.762692930E0
2.082211303E0,-2.066650391E-1,-1.800842285E-1,9.763992310E0,9.767839402E0
2.084591674E0,-1.827697754E-1,-1.943664551E-1,9.759231567E0,9.762877849E0
2.086972045E0,-1.349487305E-1,-1.753234863E-1,9.797286987E0,9.799784783E0
2.089352416E0,-1.875457764E-1,-2.133941650E-1,9.792526245E0,9.796646403E0
2.091732787E0,-1.684112549E-1,-1.943664551E-1,9.787780762E0,9.791158916E0
2.094113158E0,-1.971130371E-1,-1.943664551E-1,9.797286987E0,9.801197079E0
2.096463012E0,-1.971130371E-1,-1.896057129E-1,9.806793213E0,9.810606352E0
2.098843383E0,-1.923217773E-1,-1.800842285E-1,9.778244019E0,9.781792989E0
2.101223754E0,-1.971130371E-1,-1.896057129E-1,9.811553955E0,9.815365245E0
2.103604125E0,-1.923217773E-1,-2.038879395E-1,9.816314697E0,9.820315280E0
2.105984496E0,-1.875457764E-1,-1.896057129E-1,9.759231567E0,9.762874809E0
2.108364867E0,-1.827697754E-1,-1.896057129E-1,9.768737793E0,9.772286999E0
2.110745238E0,-1.827697754E-1,-1.753234863E-1,9.792526245E0,9.795800803E0
2.113125609E0,-1.779785156E-1,-1.658020020E-1,9.787780762E0,9.790802771E0
2.115475463E0,-2.019042969E-1,-2.086334229E-1,9.811553955E0,9.815848627E0
2.117855834E0,-1.971130371E-1,-1.943664551E-1,9.763992310E0,9.767915729E0
2.120236205E0,-2.066650391E-1,-1.753234863E-1,9.792526245E0,9.796275773E0
2.122616576E0,-1.588592529E-1,-1.800842285E-1,9.763992310E0,9.766944886E0
2.124996947E0,-1.779785156E-1,-1.991119385E-1,9.778244019E0,9.781890308E0
2.127377318E0,-1.875457764E-1,-1.658020020E-1,9.811553955E0,9.814746799E0
2.129757689E0,-1.684112549E-1,-1.991119385E-1,9.778244019E0,9.781720912E0
2.132138060E0,-1.875457764E-1,-1.848449707E-1,9.787780762E0,9.791322348E0
2.134487914E0,-1.445159912E-1,-1.896057129E-1,9.797286987E0,9.800187116E0
2.136868285E0,-1.779785156E-1,-1.848449707E-1,9.811553955E0,9.814908814E0
2.139248656E0,-1.684112549E-1,-2.038879395E-1,9.806793213E0,9.810358085E0
2.141629027E0,-1.779785156E-1,-2.086334229E-1,9.783004761E0,9.786847624E0
2.144009398E0,-1.779785156E-1,-1.848449707E-1,9.802047729E0,9.805405841E0
2.146389769E0,-1.588592529E-1,-1.848449707E-1,9.816314697E0,9.819340006E0
2.148770140E0,-1.445159912E-1,-2.038879395E-1,9.797286987E0,9.800473839E0
2.151150512E0,-1.588592529E-1,-1.848449707E-1,9.778244019E0,9.781281103E0
2.153500365E0,-1.732025146E-1,-1.705627441E-1,9.830566406E0,9.833571408E0
2.155880736E0,-1.875457764E-1,-1.991119385E-1,9.797286987E0,9.801104596E0
2.158261107E0,-1.827697754E-1,-1.753234863E-1,9.787780762E0,9.791056907E0
2.160641478E0,-1.732025146E-1,-1.610412598E-1,9.816314697E0,9.819163286E0
2.163021849E0,-1.445159912E-1,-1.943664551E-1,9.787780762E0,9.790777060E0
2.165402221E0,-1.779785156E-1,-1.896057129E-1,9.759231567E0,9.762695707E0
2.167782592E0,-1.732025146E-1,-1.896057129E-1,9.806793213E0,9.810155073E0
2.170162963E0,-1.827697754E-1,-1.896057129E-1,9.792526245E0,9.796066832E0
2.172543334E0,-1.827697754E-1,-1.610412598E-1,9.787780762E0,9.790811576E0
2.174893187E0,-1.779785156E-1,-1.753234863E-1,9.797286987E0,9.800471774E0
2.177273558E0,-1.875457764E-1,-1.800842285E-1,9.792526245E0,9.795977440E0
2.179653930E0,-1.732025146E-1,-1.705627441E-1,9.797286987E0,9.800302193E0
2.182034301E0,-1.636505127E-1,-1.800842285E-1,9.787780762E0,9.790805077E0
2.184414672E0,-1.875457764E-1,-1.705627441E-1,9.811553955E0,9.814828378E0
2.186795043E0,-1.636505127E-1,-1.896057129E-1,9.821060181E0,9.824253401E0
2.189175414E0,-1.779785156E-1,-1.943664551E-1,9.806793213E0,9.810333725E0
2.191555785E0,-1.779785156E-1,-1.991119385E-1,9.797286987E0,9.800926192E0
2.193905639E0,-1.636505127E-1,-1.705627441E-1,9.802047729E0,9.804897390E0
2.196286010E0,-1.492919922E-1,-1.800842285E-1,9.830566406E0,9.833349088E0
2.198666381E0,-1.636505127E-1,-1.943664551E-1,9.787780762E0,9.791078186E0
2.201046752E0,-1.971130371E-1,-2.086334229E-1,9.792526245E0,9.796731685E0
2.203427123E0,-1.684112549E-1,-1.562805176E-1,9.816314697E0,9.819003014E0
2.205807494E0,-1.588592529E-1,-1.800842285E-1,9.811553955E0,9.814492223E0
2.208187865E0,-1.684112549E-1,-1.991119385E-1,9.783004761E0,9.786479963E0
2.210568236E0,-1.588592529E-1,-1.610412598E-1,9.830566406E0,9.833168687E0
2.212948607E0,-1.923217773E-1,-1.896057129E-1,9.797286987E0,9.801008637E0
2.215328978E0,-1.684112549E-1,-2.133941650E-1,9.792526245E0,9.796298775E0
2.217709349E0,-1.779785156E-1,-1.800842285E-1,9.783004761E0,9.786280643E0
2.220089721E0,-1.684112549E-1,-2.038879395E-1,9.821060181E0,9.824619876E0
2.222470092E0,-2.114562988E-1,-1.991119385E-1,9.797286987E0,9.801591281E0
2.224850463E0,-1.684112549E-1,-1.800842285E-1,9.783004761E0,9.786111323E0
2.227230834E0,-1.732025146E-1,-1.562805176E-1,9.806793213E0,9.809567566E0
2.229611205E0,-1.732025146E-1,-1.991119385E-1,9.802047729E0,9.805599643E0
2.231991576E0,-1.684112549E-1,-1.896057129E-1,9.783004761E0,9.786291168E0
2.234341430E0,-1.875457764E-1,-1.658020020E-1,9.797286987E0,9.800484480E0
2.236721801E0,-1.875457764E-1,-2.038879395E-1,9.811553955E0,9.815464061E0
2.239102172E0,-1.923217773E-1,-2.038879395E-1,9.821060181E0,9.825058831E0
2.241482543E0,-1.779785156E-1,-1.896057129E-1,9.787780762E0,9.791234800E0
2.243862914E0,-1.923217773E-1,-1.800842285E-1,9.802047729E0,9.805588085E0
2.246243285E0,-1.636505127E-1,-1.658020020E-1,9.773498535E0,9.776274618E0
2.248623656E0,-1.636505127E-1,-1.848449707E-1,9.792526245E0,9.795637775E0
2.251004027E0,-1.684112549E-1,-1.896057129E-1,9.792526245E0,9.795809458E0
2.253353881E0,-1.875457764E-1,-1.848449707E-1,9.830566406E0,9.834092584E0
2.255734252E0,-1.684112549E-1,-2.038879395E-1,9.797286987E0,9.800855317E0
2.258114623E0,-1.732025146E-1,-1.943664551E-1,9.763992310E0,9.767462478E0
2.260494994E0,-2.019042969E-1,-2.086334229E-1,9.744964600E0,9.749288605E0
2.262875365E0,-1.684112549E-1,-1.800842285E-1,9.821060181E0,9.824154709E0
2.265255736E0,-1.971130371E-1,-1.896057129E-1,9.806793213E0,9.810606352E0
2.267636107E0,-1.540679932E-1,-1.753234863E-1,9.806793213E0,9.809570245E0
2.270016478E0,-1.588592529E-1,-1.800842285E-1,9.787780762E0,9.790726165E0
2.272366332E0,-1.732025146E-1,-2.133941650E-1,9.773498535E0,9.777362108E0
2.274746703E0,-1.588592529E-1,-1.943664551E-1,9.792526245E0,9.795743200E0
2.277127074E0,-1.779785156E-1,-1.610412598E-1,9.816314697E0,9.819248692E0
2.279507445E0,-1.636505127E-1,-1.943664551E-1,9.811553955E0,9.814843393E0
2.281887816E0,-1.684112549E-1,-2.038879395E-1,9.768737793E0,9.772316548E0
2.284268187E0,-1.636505127E-1,-1.658020020E-1,9.773498535E0,9.776274618E0
2.286648558E0,-1.779785156E-1,-1.658020020E-1,9.835327148E0,9.838334553E0
2.289028930E0,-1.588592529E-1,-2.038879395E-1,9.816314697E0,9.819716940E0
2.291409301E0,-1.540679932E-1,-1.991119385E-1,9.840087891E0,9.843307991E0
2.293759154E0,-1.779785156E-1,-1.848449707E-1,9.816314697E0,9.819667930E0
2.296139525E0,-1.636505127E-1,-1.515197754E-1,9.825820923E0,9.828351670E0
2.298519896E0,-1.636505127E-1,-1.753234863E-1,9.797286987E0,9.800222045E0
2.300900267E0,-1.684112549E-1,-1.896057129E-1,9.787780762E0,9.791065566E0
2.303280639E0,-1.827697754E-1,-1.753234863E-1,9.811553955E0,9.814822165E0
2.305661010E0,-1.827697754E-1,-1.705627441E-1,9.787780762E0,9.790972816E0
2.308041381E0,-1.636505127E-1,-1.610412598E-1,9.778244019E0,9.780939212E0
2.310421752E0,-1.445159912E-1,-1.991119385E-1,9.797286987E0,9.800375643E0
2.312771605E0,-1.684112549E-1,-1.896057129E-1,9.773498535E0,9.776788138E0
2.315151976E0,-1.827697754E-1,-1.943664551E-1,9.744964600E0,9.748616218E0
2.317532348E0,-1.684112549E-1,-1.848449707E-1,9.792526245E0,9.795718467E0
2.319912719E0,-1.588592529E-1,-1.896057129E-1,9.787780762E0,9.790905925E0
2.322293090E0,-1.588592529E-1,-1.896057129E-1,9.763992310E0,9.767125084E0
2.324673461E0,-1.875457764E-1,-1.848449707E-1,9.806793213E0,9.810327935E0
2.327053832E0,-1.684112549E-1,-1.896057129E-1,9.773498535E0,9.776788138E0
2.329434203E0,-1.588592529E-1,-1.896057129E-1,9.802047729E0,9.805168345E0
2.331784057E0,-1.875457764E-1,-1.991119385E-1,9.792526245E0,9.796345709E0
2.334164428E0,-1.779785156E-1,-1.800842285E-1,9.811553955E0,9.814820309E0
2.336544799E0,-1.779785156E-1,-1.800842285E-1,9.821060181E0,9.824323374E0
2.338925170E0,-1.492919922E-1,-1.705627441E-1,9.787780762E0,9.790405098E0
2.341305541E0,-1.684112549E-1,-1.848449707E-1,9.802047729E0,9.805236851E0
2.343685912E0,-2.019042969E-1,-1.943664551E-1,9.825820923E0,9.829816909E0
2.346066283E0,-1.779785156E-1,-1.800842285E-1,9.797286987E0,9.800558096E0
2.348446654E0,-1.971130371E-1,-2.181701660E-1,9.763992310E0,9.768418377E0
2.350827025E0,-1.875457764E-1,-1.943664551E-1,9.806793213E0,9.810511957E0
2.353176879E0,-1.684112549E-1,-1.753234863E-1,9.830566406E0,9.833571912E0
2.355557250E0,-2.114562988E-1,-1.896057129E-1,9.821060181E0,9.825166012E0
2.357937621E0,-1.684112549E-1,-1.848449707E-1,9.783004761E0,9.786200088E0
2.360317992E0,-1.588592529E-1,-1.753234863E-1,9.811553955E0,9.814406024E0
2.362698363E0,-1.588592529E-1,-1.705627441E-1,9.816314697E0,9.819081533E0
2.365078734E0,-1.923217773E-1,-1.896057129E-1,9.792526245E0,9.796249704E0
2.367459105E0,-1.923217773E-1,-1.753234863E-1,9.811553955E0,9.815004687E0
2.369839476E0,-1.779785156E-1,-1.943664551E-1,9.797286987E0,9.800830933E0
2.372189330E0,-1.923217773E-1,-2.324523926E-1,9.783004761E0,9.787655691E0
2.374569701E0,-1.971130371E-1,-2.086334229E-1,9.811553955E0,9.815751243E0
2.376950072E0,-1.827697754E-1,-1.896057129E-1,9.825820923E0,9.829349517E0
2.379330443E0,-1.779785156E-1,-2.086334229E-1,9.806793213E0,9.810626758E0
2.381710814E0,-1.827697754E-1,-1.991119385E-1,9.792526245E0,9.796255438E0
2.384091185E0,-1.636505127E-1,-1.896057129E-1,9.787780762E0,9.790984836E0
2.386471557E0,-1.636505127E-1,-1.610412598E-1,9.783004761E0,9.785698643E0
2.388851928E0,-1.732025146E-1,-1.943664551E-1,9.787780762E0,9.791242499E0
2.391201781E0,-1.875457764E-1,-1.896057129E-1,9.797286987E0,9.800916082E0
2.393582152E0,-1.732025146E-1,-1.896057129E-1,9.778244019E0,9.781615691E0
2.395962523E0,-1.684112549E-1,-1.610412598E-1,9.759231567E0,9.762012980E0
2.398342894E0,-1.588592529E-1,-1.848449707E-1,9.778244019E0,9.781281103E0
2.400723265E0,-1.779785156E-1,-1.705627441E-1,9.806793213E0,9.809890984E0
2.403103637E0,-1.732025146E-1,-1.848449707E-1,9.802047729E0,9.805320314E0
2.405484008E0,-1.732025146E-1,-1.658020020E-1,9.768737793E0,9.771679870E0
2.407864379E0,-1.636505127E-1,-2.038879395E-1,9.773498535E0,9.776994702E0
2.410244750E0,-1.923217773E-1,-2.133941650E-1,9.821060181E0,9.825260699E0
2.412594603E0,-1.779785156E-1,-1.610412598E-1,9.773498535E0,9.776445379E0
2.414974974E0,-1.827697754E-1,-2.038879395E-1,9.792526245E0,9.796353676E0
2.417355346E0,-1.875457764E-1,-1.991119385E-1,9.787780762E0,9.791602076E0
2.419735717E0,-1.779785156E-1,-1.848449707E-1,9.792526245E0,9.795887621E0
2.422116088E0,-1.923217773E-1,-1.848449707E-1,9.811553955E0,9.815179384E0
2.424496459E0,-1.971130371E-1,-1.705627441E-1,9.778244019E0,9.781717706E0
2.426876830E0,-1.636505127E-1,-1.848449707E-1,9.806793213E0,9.809900217E0
2.429257201E0,-1.875457764E-1,-1.991119385E-1,9.773498535E0,9.777325432E0
2.431607055E0,-1.636505127E-1,-1.705627441E-1,9.763992310E0,9.766853074E0
2.433987426E0,-1.636505127E-1,-2.038879395E-1,9.816314697E0,9.819795620E0
2.436367797E0,-1.732025146E-1,-1.943664551E-1,9.811553955E0,9.815007307E0
2.438748168E0,-1.875457764E-1,-1.991119385E-1,9.802047729E0,9.805863484E0
2.441128539E0,-1.684112549E-1,-1.943664551E-1,9.773498535E0,9.776881624E0
2.443508910E0,-1.732025146E-1,-1.610412598E-1,9.825820923E0,9.828666756E0
2.445889281E0,-1.684112549E-1,-2.038879395E-1,9.811553955E0,9.815117098E0
2.448269652E0,-1.923217773E-1,-1.658020020E-1,9.768737793E0,9.772037456E0
2.450619506E0,-1.827697754E-1,-1.943664551E-1,9.787780762E0,9.791416412E0
2.452999877E0,-1.684112549E-1,-1.896057129E-1,9.797286987E0,9.800568605E0
2.455380248E0,-1.875457764E-1,-1.848449707E-1,9.773498535E0,9.777045295E0
2.457760619E0,-1.684112549E-1,-1.753234863E-1,9.773498535E0,9.776521585E0
2.460140990E0,-1.636505127E-1,-1.896057129E-1,9.821060181E0,9.824253401E0
2.462521361E0,-1.827697754E-1,-1.800842285E-1,9.797286987E0,9.800646276E0
2.464901732E0,-1.636505127E-1,-2.038879395E-1,9.783004761E0,9.786497531E0
2.467282103E0,-1.684112549E-1,-1.705627441E-1,9.792526245E0,9.795459370E0
2.469662474E0,-1.732025146E-1,-1.943664551E-1,9.773498535E0,9.776965329E0
2.472012328E0,-1.779785156E-1,-1.705627441E-1,9.802047729E0,9.805147000E0
2.474392699E0,-1.540679932E-1,-1.610412598E-1,9.792526245E0,9.795062098E0
2.476773070E0,-1.540679932E-1,-1.943664551E-1,9.811553955E0,9.814688292E0
2.479153441E0,-1.684112549E-1,-2.229156494E-1,9.787780762E0,9.791767255E0
2.481533812E0,-1.875457764E-1,-2.038879395E-1,9.763992310E0,9.767921454E0
2.483914183E0,-1.971130371E-1,-2.038879395E-1,9.806793213E0,9.810892771E0
2.486294555E0,-1.779785156E-1,-1.753234863E-1,9.806793213E0,9.809974913E0
2.488674926E0,-1.445159912E-1,-1.800842285E-1,9.806793213E0,9.809511115E0
2.491055297E0,-1.684112549E-1,-1.800842285E-1,9.797286987E0,9.800389022E0
2.493435668E0,-1.732025146E-1,-1.848449707E-1,9.802047729E0,9.805320314E0
2.495816039E0,-1.684112549E-1,-1.896057129E-1,9.792526245E0,9.795809458E0
2.498196410E0,-1.492919922E-1,-1.562805176E-1,9.768737793E0,9.771128377E0
2.500576781E0,-1.779785156E-1,-1.800842285E-1,9.825820923E0,9.829082535E0
2.502957152E0,-1.779785156E-1,-1.943664551E-1,9.806793213E0,9.810333725E0
2.505337523E0,-1.827697754E-1,-1.943664551E-1,9.802047729E0,9.805678090E0
2.507717894E0,-1.732025146E-1,-2.038879395E-1,9.773498535E0,9.777159251E0
2.510067748E0,-2.066650391E-1,-1.848449707E-1,9.787780762E0,9.791707223E0
2.512448119E0,-1.827697754E-1,-1.943664551E-1,9.821060181E0,9.824683516E0
2.514828490E0,-1.779785156E-1,-1.705627441E-1,9.773498535E0,9.776606856E0
2.517208861E0,-1.684112549E-1,-1.896057129E-1,9.792526245E0,9.795809458E0
2.519589232E0,-1.923217773E-1,-1.800842285E-1,9.811553955E0,9.815090881E0
2.521969603E0,-1.875457764E-1,-1.943664551E-1,9.797286987E0,9.801009338E0
2.524349974E0,-2.066650391E-1,-1.943664551E-1,9.749725342E0,9.753852213E0
2.526730346E0,-1.732025146E-1,-1.610412598E-1,9.773498535E0,9.776359599E0
2.529110717E0,-1.540679932E-1,-2.038879395E-1,9.840087891E0,9.843405759E0
2.531460570E0,-1.445159912E-1,-2.133941650E-1,9.778244019E0,9.781639843E0
2.533840941E0,-1.636505127E-1,-2.181701660E-1,9.763992310E0,9.767800445E0
2.536221312E0,-1.779785156E-1,-2.038879395E-1,9.797286987E0,9.801024383E0
2.538601683E0,-1.684112549E-1,-1.896057129E-1,9.783004761E0,9.786291168E0
2.540982055E0,-1.875457764E-1,-1.991119385E-1,9.759231567E0,9.763064056E0
2.543362426E0,-1.923217773E-1,-1.943664551E-1,9.811553955E0,9.815363315E0
2.545742797E0,-1.540679932E-1,-1.848449707E-1,9.821060181E0,9.824007720E0
2.548123168E0,-1.636505127E-1,-2.086334229E-1,9.792526245E0,9.796115539E0
2.550473021E0,-1.779785156E-1,-1.896057129E-1,9.773498535E0,9.776957620E0
2.552853392E0,-2.114562988E-1,-1.753234863E-1,9.792526245E0,9.796378022E0
2.555233764E0,-1.875457764E-1,-1.658020020E-1,9.778244019E0,9.781447736E0
2.557614135E0,-1.779785156E-1,-1.848449707E-1,9.802047729E0,9.805405841E0
2.559994506E0,-1.971130371E-1,-1.896057129E-1,9.830566406E0,9.834370328E0
2.562374877E0,-1.732025146E-1,-1.800842285E-1,9.840087891E0,9.843259579E0
2.564755248E0,-1.588592529E-1,-1.753234863E-1,9.763992310E0,9.766858267E0
2.567135619E0,-1.923217773E-1,-1.562805176E-1,9.792526245E0,9.795661362E0
2.569485473E0,-1.636505127E-1,-1.705627441E-1,9.802047729E0,9.804897390E0
2.571865844E0,-1.588592529E-1,-1.848449707E-1,9.778244019E0,9.781281103E0
2.574246215E0,-1.779785156E-1,-1.896057129E-1,9.816314697E0,9.819758699E0
2.576626586E0,-1.779785156E-1,-1.753234863E-1,9.778244019E0,9.781435005E0
2.579006957E0,-1.492919922E-1,-1.753234863E-1,9.811553955E0,9.814255827E0
2.581387328E0,-2.066650391E-1,-1.658020020E-1,9.787780762E0,9.791366247E0
2.583767699E0,-1.971130371E-1,-1.753234863E-1,9.802047729E0,9.805596951E0
2.586148070E0,-1.875457764E-1,-1.753234863E-1,9.773498535E0,9.776869916E0
2.588528441E0,-1.875457764E-1,-1.943664551E-1,9.797286987E0,9.801009338E0
2.590878295E0,-1.827697754E-1,-1.705627441E-1,9.806793213E0,9.809979081E0
2.593258666E0,-1.732025146E-1,-1.753234863E-1,9.811553955E0,9.814648667E0
2.595639037E0,-1.588592529E-1,-1.991119385E-1,9.792526245E0,9.795838509E0
2.598019408E0,-1.923217773E-1,-2.038879395E-1,9.778244019E0,9.782260171E0
2.600399779E0,-2.019042969E-1,-1.658020020E-1,9.787780762E0,9.791266919E0
2.602780150E0,-1.588592529E-1,-1.896057129E-1,9.816314697E0,9.819430779E0
2.605160521E0,-1.684112549E-1,-1.658020020E-1,9.811553955E0,9.814399812E0
2.607540892E0,-1.732025146E-1,-1.515197754E-1,9.797286987E0,9.799989269E0
2.609890746E0,-1.827697754E-1,-1.562805176E-1,9.802047729E0,9.804997098E0
2.612271117E0,-1.540679932E-1,-1.705627441E-1,9.816314697E0,9.819005185E0
2.614651488E0,-1.779785156E-1,-1.705627441E-1,9.768737793E0,9.771847628E0
2.617031859E0,-1.445159912E-1,-1.753234863E-1,9.759231567E0,9.761876048E0
2.619412230E0,-1.684112549E-1,-2.086334229E-1,9.797286987E0,9.800955186E0
2.621792601E0,-1.636505127E-1,-1.943664551E-1,9.797286987E0,9.800581213E0
2.624172973E0,-1.779785156E-1,-1.753234863E-1,9.754470825E0,9.757669586E0
2.626553344E0,-1.636505127E-1,-1.658020020E-1,9.763992310E0,9.766771095E0
2.628903197E0,-1.636505127E-1,-1.800842285E-1,9.802047729E0,9.805067644E0
2.631283568E0,-1.732025146E-1,-1.800842285E-1,9.768737793E0,9.771932639E0
2.633663939E0,-1.540679932E-1,-2.086334229E-1,9.806793213E0,9.810222116E0
2.636044310E0,-1.732025146E-1,-1.515197754E-1,9.811553955E0,9.814252308E0
2.638424682E0,-1.636505127E-1,-1.610412598E-1,9.783004761E0,9.785698643E0
2.640805053E0,-1.827697754E-1,-1.943664551E-1,9.763992310E0,9.767636814E0
2.643185424E0,-1.779785156E-1,-1.896057129E-1,9.825820923E0,9.829261594E0
2.645565795E0,-1.540679932E-1,-1.800842285E-1,9.821060181E0,9.823919297E0
2.647946166E0,-1.875457764E-1,-1.753234863E-1,9.797286987E0,9.800650185E0
2.650296019E0,-1.732025146E-1,-1.705627441E-1,9.816314697E0,9.819324060E0
2.652676390E0,-1.588592529E-1,-1.753234863E-1,9.797286987E0,9.800143208E0
2.655056762E0,-1.732025146E-1,-1.991119385E-1,9.806793213E0,9.810343409E0
2.657437133E0,-1.684112549E-1,-1.753234863E-1,9.806793213E0,9.809806002E0
2.659817504E0,-1.779785156E-1,-2.086334229E-1,9.816314697E0,9.820144525E0
2.662197875E0,-1.588592529E-1,-1.991119385E-1,9.749725342E0,9.753052141E0
2.664578246E0,-2.019042969E-1,-1.848449707E-1,9.783004761E0,9.786833766E0
2.666958617E0,-1.971130371E-1,-1.943664551E-1,9.749725342E0,9.753654500E0
2.669308471E0,-2.114562988E-1,-1.658020020E-1,9.792526245E0,9.796212244E0
2.671688842E0,-1.684112549E-1,-1.800842285E-1,9.802047729E0,9.805148259E0
2.674069213E0,-1.684112549E-1,-1.991119385E-1,9.778244019E0,9.781720912E0
2.676449584E0,-1.588592529E-1,-2.133941650E-1,9.787780762E0,9.791395486E0
2.678829955E0,-1.588592529E-1,-1.848449707E-1,9.787780762E0,9.790814888E0
2.681210326E0,-1.445159912E-1,-1.896057129E-1,9.787780762E0,9.790683706E0
2.683590697E0,-1.779785156E-1,-1.943664551E-1,9.811553955E0,9.815092750E0
2.685971068E0,-1.875457764E-1,-1.943664551E-1,9.802047729E0,9.805768273E0
2.688320922E0,-1.684112549E-1,-1.753234863E-1,9.821060181E0,9.824068594E0
2.690701293E0,-1.732025146E-1,-2.133941650E-1,9.816314697E0,9.820161425E0
2.693081664E0,-1.875457764E-1,-2.038879395E-1,9.797286987E0,9.801202784E0
2.695462035E0,-1.779785156E-1,-2.038879395E-1,9.825820923E0,9.829547469E0
2.697842406E0,-1.875457764E-1,-2.086334229E-1,9.759231567E0,9.763262882E0
2.700222777E0,-1.827697754E-1,-2.086334229E-1,9.792526245E0,9.796453591E0
2.702603148E0,-1.779785156E-1,-1.753234863E-1,9.840087891E0,9.843258829E0
2.704983519E0,-1.684112549E-1,-1.896057129E-1,9.806793213E0,9.810071651E0
2.707363890E0,-1.636505127E-1,-1.943664551E-1,9.778244019E0,9.781544658E0
2.709713744E0,-1.684112549E-1,-2.038879395E-1,9.783004761E0,9.786578298E0
2.712094115E0,-1.971130371E-1,-1.848449707E-1,9.821060181E0,9.824777060E0
2.714474486E0,-1.684112549E-1,-1.658020020E-1,9.778244019E0,9.781099567E0
2.716854857E0,-1.827697754E-1,-1.753234863E-1,9.759231567E0,9.762517293E0
2.719235228E0,-1.732025146E-1,-1.896057129E-1,9.821060181E0,9.824417159E0
2.721615599E0,-1.636505127E-1,-1.991119385E-1,9.773498535E0,9.776896270E0
2.723995971E0,-1.636505127E-1,-1.610412598E-1,9.773498535E0,9.776195037E0
2.726376342E0,-2.019042969E-1,-1.943664551E-1,9.816314697E0,9.820314552E0
2.728726195E0,-1.684112549E-1,-1.753234863E-1,9.806793213E0,9.809806002E0
2.731106566E0,-1.684112549E-1,-1.705627441E-1,9.787780762E0,9.790715308E0
2.733486937E0,-1.588592529E-1,-1.896057129E-1,9.783004761E0,9.786131449E0
2.735867308E0,-1.684112549E-1,-1.848449707E-1,9.825820923E0,9.829002331E0
2.738247680E0,-1.971130371E-1,-1.800842285E-1,9.797286987E0,9.800924252E0
2.740628051E0,-1.827697754E-1,-1.753234863E-1,9.759231567E0,9.762517293E0
2.743008422E0,-1.636505127E-1,-1.896057129E-1,9.783004761E0,9.786210399E0
2.745388793E0,-1.732025146E-1,-1.753234863E-1,9.811553955E0,9.814648667E0
2.747738646E0,-1.588592529E-1,-1.705627441E-1,9.778244019E0,9.781021623E0
2.750119017E0,-1.875457764E-1,-1.562805176E-1,9.835327148E0,9.838356424E0
2.752499389E0,-1.732025146E-1,-1.705627441E-1,9.797286987E0,9.800302193E0
2.754879760E0,-1.492919922E-1,-1.896057129E-1,9.816314697E0,9.819280659E0
2.757260131E0,-1.684112549E-1,-2.133941650E-1,9.792526245E0,9.796298775E0
2.759640502E0,-1.588592529E-1,-1.848449707E-1,9.811553955E0,9.814580732E0
2.762020873E0,-1.588592529E-1,-1.800842285E-1,9.840087891E0,9.843017641E0
2.764401244E0,-1.875457764E-1,-1.943664551E-1,9.806793213E0,9.810511957E0
2.766781615E0,-1.923217773E-1,-1.991119385E-1,9.787780762E0,9.791694719E0
2.769131469E0,-1.779785156E-1,-1.896057129E-1,9.802047729E0,9.805496743E0
2.771511840E0,-1.923217773E-1,-1.705627441E-1,9.792526245E0,9.795899631E0
2.773892211E0,-1.732025146E-1,-1.800842285E-1,9.773498535E0,9.776691826E0
2.776272582E0,-1.875457764E-1,-1.705627441E-1,9.797286987E0,9.800566176E0
2.778652953E0,-1.732025146E-1,-2.133941650E-1,9.797286987E0,9.801141183E0
2.781033324E0,-1.923217773E-1,-1.943664551E-1,9.773498535E0,9.777322722E0
2.783413695E0,-1.779785156E-1,-1.658020020E-1,9.768737793E0,9.771765691E0
2.785794066E0,-1.732025146E-1,-1.848449707E-1,9.811553955E0,9.814823370E0
2.788174437E0,-1.827697754E-1,-1.848449707E-1,9.787780762E0,9.791232031E0
2.790554808E0,-1.827697754E-1,-2.133941650E-1,9.787780762E0,9.791812605E0
2.792935180E0,-1.684112549E-1,-1.800842285E-1,9.821060181E0,9.824154709E0
2.795315551E0,-1.779785156E-1,-1.562805176E-1,9.811553955E0,9.814412411E0
2.797695922E0,-1.827697754E-1,-1.943664551E-1,9.806793213E0,9.810421817E0
2.800076293E0,-2.019042969E-1,-1.943664551E-1,9.802047729E0,9.806053404E0
2.802456664E0,-1.636505127E-1,-1.848449707E-1,9.792526245E0,9.795637775E0
2.804837035E0,-1.445159912E-1,-1.800842285E-1,9.802047729E0,9.804766947E0
2.807186889E0,-1.779785156E-1,-2.038879395E-1,9.802047729E0,9.805783311E0
2.809567260E0,-1.923217773E-1,-1.705627441E-1,9.792526245E0,9.795899631E0
2.811947631E0,-1.732025146E-1,-2.086334229E-1,9.816314697E0,9.820059127E0
2.814328002E0,-1.779785156E-1,-1.991119385E-1,9.792526245E0,9.796167219E0
2.816708373E0,-1.779785156E-1,-2.086334229E-1,9.806793213E0,9.810626758E0
2.819088744E0,-1.684112549E-1,-1.753234863E-1,9.797286987E0,9.800302699E0
2.821469115E0,-1.684112549E-1,-1.848449707E-1,9.792526245E0,9.795718467E0
2.823849486E0,-1.636505127E-1,-1.991119385E-1,9.773498535E0,9.776896270E0
2.826229857E0,-1.636505127E-1,-1.753234863E-1,9.811553955E0,9.814484746E0
2.828579711E0,-1.540679932E-1,-1.753234863E-1,9.802047729E0,9.804826106E0
2.830960082E0,-1.732025146E-1,-1.800842285E-1,9.749725342E0,9.752926416E0
2.833340453E0,-1.636505127E-1,-1.705627441E-1,9.783004761E0,9.785859967E0
2.835720824E0,-1.827697754E-1,-1.943664551E-1,9.816314697E0,9.819939783E0
2.838101195E0,-1.588592529E-1,-2.181701660E-1,9.830566406E0,9.834270199E0
2.840481566E0,-1.540679932E-1,-1.991119385E-1,9.787780762E0,9.791018065E0
2.842861937E0,-1.779785156E-1,-1.610412598E-1,9.835327148E0,9.838255473E0
2.845242308E0,-1.397247314E-1,-1.800842285E-1,9.821060181E0,9.823704821E0
2.847592162E0,-1.540679932E-1,-1.753234863E-1,9.811553955E0,9.814329640E0
2.849972533E0,-1.923217773E-1,-2.038879395E-1,9.816314697E0,9.820315280E0
2.852352904E0,-1.540679932E-1,-1.753234863E-1,9.797286987E0,9.800066713E0
2.854733275E0,-1.492919922E-1,-1.943664551E-1,9.773498535E0,9.776570975E0
2.857113646E0,-1.397247314E-1,-1.800842285E-1,9.787780762E0,9.790434391E0
2.859494017E0,-1.445159912E-1,-1.848449707E-1,9.835327148E0,9.838125464E0
2.861874389E0,-1.445159912E-1,-1.658020020E-1,9.825820923E0,9.828282250E0
2.864254760E0,-1.588592529E-1,-1.705627441E-1,9.806793213E0,9.809562734E0
2.866604613E0,-1.875457764E-1,-1.515197754E-1,9.778244019E0,9.781216067E0
2.868984984E0,-1.827697754E-1,-1.991119385E-1,9.787780762E0,9.791511762E0
2.871365355E0,-1.779785156E-1,-1.991119385E-1,9.778244019E0,9.781890308E0
2.873745726E0,-1.636505127E-1,-1.753234863E-1,9.754470825E0,9.757418762E0
2.876126098E0,-1.349487305E-1,-1.658020020E-1,9.763992310E0,9.766332335E0
2.878506469E0,-1.492919922E-1,-1.705627441E-1,9.773498535E0,9.776126706E0
2.880886840E0,-1.588592529E-1,-1.896057129E-1,9.792526245E0,9.795649894E0
2.883267211E0,-1.875457764E-1,-1.848449707E-1,9.787780762E0,9.791322348E0
2.885647582E0,-1.971130371E-1,-1.991119385E-1,9.773498535E0,9.777513627E0
2.887997435E0,-1.827697754E-1,-1.800842285E-1,9.778244019E0,9.781609847E0
2.890377807E0,-1.779785156E-1,-1.896057129E-1,9.778244019E0,9.781701425E0
2.892758178E0,-1.684112549E-1,-1.753234863E-1,9.821060181E0,9.824068594E0
2.895138549E0,-1.923217773E-1,-1.991119385E-1,9.830566406E0,9.834463336E0
2.897518920E0,-1.827697754E-1,-1.943664551E-1,9.811553955E0,9.815180799E0
2.899899291E0,-1.732025146E-1,-1.896057129E-1,9.797286987E0,9.800652108E0
2.902279662E0,-1.971130371E-1,-1.610412598E-1,9.778244019E0,9.781556314E0
2.904660033E0,-1.971130371E-1,-1.658020020E-1,9.797286987E0,9.800672230E0
2.907009887E0,-1.923217773E-1,-1.753234863E-1,9.792526245E0,9.795983680E0
2.909390258E0,-1.684112549E-1,-1.943664551E-1,9.802047729E0,9.805420968E0
2.911770629E0,-1.588592529E-1,-1.800842285E-1,9.783004761E0,9.785951601E0
2.914151000E0,-1.732025146E-1,-1.991119385E-1,9.763992310E0,9.767558062E0
2.916531371E0,-1.827697754E-1,-1.658020020E-1,9.806793213E0,9.809897462E0
2.918911742E0,-1.875457764E-1,-1.753234863E-1,9.797286987E0,9.800650185E0
2.921292113E0,-1.684112549E-1,-1.658020020E-1,9.806793213E0,9.809640451E0
2.923672484E0,-1.827697754E-1,-1.943664551E-1,9.759231567E0,9.762877849E0
2.926022338E0,-1.636505127E-1,-1.800842285E-1,9.787780762E0,9.790805077E0
2.928402709E0,-1.732025146E-1,-1.800842285E-1,9.811553955E0,9.814734864E0
2.930783080E0,-1.779785156E-1,-2.181701660E-1,9.787780762E0,9.791829595E0
2.933163451E0,-1.827697754E-1,-1.943664551E-1,9.773498535E0,9.777139496E0
2.935543822E0,-1.827697754E-1,-1.658020020E-1,9.806793213E0,9.809897462E0
2.937924193E0,-1.875457764E-1,-1.705627441E-1,9.797286987E0,9.800566176E0
2.940304564E0,-1.492919922E-1,-2.133941650E-1,9.749725342E0,9.753203033E0
2.942684935E0,-1.588592529E-1,-1.896057129E-1,9.830566406E0,9.833677972E0
2.945065307E0,-1.636505127E-1,-1.848449707E-1,9.821060181E0,9.824162673E0
2.947415160E0,-1.588592529E-1,-1.800842285E-1,9.792526245E0,9.795470221E0
2.949795531E0,-1.875457764E-1,-1.896057129E-1,9.792526245E0,9.796157104E0
2.952175902E0,-1.971130371E-1,-1.562805176E-1,9.763992310E0,9.767232104E0
2.954556273E0,-1.636505127E-1,-1.896057129E-1,9.783004761E0,9.786210399E0
2.956936644E0,-1.875457764E-1,-1.848449707E-1,9.763992310E0,9.767542521E0
2.959317015E0,-1.540679932E-1,-1.800842285E-1,9.792526245E0,9.795393690E0
2.961697387E0,-1.588592529E-1,-1.896057129E-1,9.802047729E0,9.805168345E0
2.964077758E0,-1.684112549E-1,-1.991119385E-1,9.802047729E0,9.805516183E0
2.966427611E0,-1.588592529E-1,-1.943664551E-1,9.778244019E0,9.781465671E0
2.968807982E0,-1.779785156E-1,-1.848449707E-1,9.830566406E0,9.833914779E0
2.971188353E0,-1.492919922E-1,-2.229156494E-1,9.806793213E0,9.810462405E0
2.973568724E0,-1.779785156E-1,-1.753234863E-1,9.787780762E0,9.790968640E0
2.975949096E0,-1.923217773E-1,-2.229156494E-1,9.797286987E0,9.801709614E0
2.978329467E0,-1.779785156E-1,-1.943664551E-1,9.806793213E0,9.810333725E0
2.980709838E0,-1.732025146E-1,-1.753234863E-1,9.797286987E0,9.800386204E0
2.983090209E0,-1.827697754E-1,-1.610412598E-1,9.792526245E0,9.795555591E0
2.985440062E0,-1.588592529E-1,-1.800842285E-1,9.802047729E0,9.804988847E0
2.987820433E0,-1.779785156E-1,-1.991119385E-1,9.778244019E0,9.781890308E0
2.990200805E0,-1.636505127E-1,-1.705627441E-1,9.787780762E0,9.790634575E0
2.992581176E0,-1.779785156E-1,-1.991119385E-1,9.783004761E0,9.786649277E0
2.994961547E0,-1.732025146E-1,-1.896057129E-1,9.773498535E0,9.776871844E0
2.997341918E0,-1.779785156E-1,-2.181701660E-1,9.773498535E0,9.777553282E0
2.999722289E0,-1.827697754E-1,-1.848449707E-1,9.783004761E0,9.786457715E0
3.002102660E0,-1.732025146E-1,-1.848449707E-1,9.806793213E0,9.810064215E0
3.004483031E0,-1.971130371E-1,-1.705627441E-1,9.825820923E0,9.829277797E0
3.006832885E0,-1.732025146E-1,-1.848449707E-1,9.749725342E0,9.753015483E0
3.009213256E0,-1.732025146E-1,-1.800842285E-1,9.821060181E0,9.824238012E0
3.011593627E0,-2.066650391E-1,-1.610412598E-1,9.806793213E0,9.810292444E0
3.013973998E0,-1.875457764E-1,-1.848449707E-1,9.787780762E0,9.791322348E0
3.016354369E0,-1.445159912E-1,-1.991119385E-1,9.792526245E0,9.795616402E0
3.018734740E0,-1.397247314E-1,-1.848449707E-1,9.816314697E0,9.819049083E0
3.021115111E0,-1.684112549E-1,-1.800842285E-1,9.773498535E0,9.776608118E0
3.023495482E0,-1.588592529E-1,-1.753234863E-1,9.787780762E0,9.790639756E0
3.025845336E0,-1.492919922E-1,-1.991119385E-1,9.792526245E0,9.795688027E0
3.028225707E0,-1.684112549E-1,-1.800842285E-1,9.787780762E0,9.790885809E0
3.030606078E0,-1.875457764E-1,-1.896057129E-1,9.778244019E0,9.781880179E0
3.032986449E0,-1.732025146E-1,-1.896057129E-1,9.787780762E0,9.791149150E0
3.035366820E0,-1.684112549E-1,-1.753234863E-1,9.821060181E0,9.824068594E0
3.037747191E0,-1.445159912E-1,-1.943664551E-1,9.806793213E0,9.809783704E0
3.040127562E0,-1.540679932E-1,-1.943664551E-1,9.811553955E0,9.814688292E0
3.042507933E0,-1.779785156E-1,-1.705627441E-1,9.797286987E0,9.800387763E0
3.044857787E0,-1.875457764E-1,-1.800842285E-1,9.806793213E0,9.810239389E0
3.047238158E0,-1.540679932E-1,-1.610412598E-1,9.811553955E0,9.814084891E0
3.049618529E0,-1.588592529E-1,-1.991119385E-1,9.778244019E0,9.781561118E0
3.051998900E0,-1.588592529E-1,-1.753234863E-1,9.821060181E0,9.823909490E0
3.054379271E0,-1.540679932E-1,-1.800842285E-1,9.802047729E0,9.804912390E0
3.056759642E0,-1.445159912E-1,-1.896057129E-1,9.783004761E0,9.785909122E0
3.059140014E0,-1.875457764E-1,-1.800842285E-1,9.806793213E0,9.810239389E0
3.061520385E0,-1.827697754E-1,-1.658020020E-1,9.821060181E0,9.824159922E0
3.063900756E0,-1.779785156E-1,-2.181701660E-1,9.792526245E0,9.796573117E0
3.066281127E0,-1.732025146E-1,-2.038879395E-1,9.768737793E0,9.772400292E0
3.068661498E0,-1.732025146E-1,-2.086334229E-1,9.787780762E0,9.791536103E0
3.071041869E0,-1.779785156E-1,-1.848449707E-1,9.806793213E0,9.810149700E0
3.073422240E0,-1.875457764E-1,-1.896057129E-1,9.768737793E0,9.772377490E0
3.075802611E0,-1.492919922E-1,-1.658020020E-1,9.787780762E0,9.790323317E0
3.078182982E0,-1.875457764E-1,-1.753234863E-1,9.759231567E0,9.762607875E0
3.080563353E0,-1.540679932E-1,-1.991119385E-1,9.783004761E0,9.786243644E0
3.082943724E0,-1.827697754E-1,-1.705627441E-1,9.787780762E0,9.790972816E0
3.085293578E0,-1.827697754E-1,-1.658020020E-1,9.835327148E0,9.838422394E0
3.087673949E0,-1.971130371E-1,-1.800842285E-1,9.773498535E0,9.777144649E0
3.090054320E0,-1.492919922E-1,-1.848449707E-1,9.754470825E0,9.757364236E0
3.092434691E0,-1.971130371E-1,-1.753234863E-1,9.787780762E0,9.791335155E0
3.094815062E0,-1.732025146E-1,-1.705627441E-1,9.797286987E0,9.800302193E0
3.097195433E0,-1.732025146E-1,-1.658020020E-1,9.830566406E0,9.833489985E0
3.099575805E0,-1.827697754E-1,-1.753234863E-1,9.797286987E0,9.800559955E0
3.101956176E0,-1.540679932E-1,-1.800842285E-1,9.821060181E0,9.823919297E0
3.104306029E0,-1.779785156E-1,-1.705627441E-1,9.806793213E0,9.809890984E0
3.106686400E0,-1.684112549E-1,-1.991119385E-1,9.778244019E0,9.781720912E0
3.109066771E0,-1.827697754E-1,-1.896057129E-1,9.792526245E0,9.796066832E0
3.111447142E0,-1.732025146E-1,-1.848449707E-1,9.802047729E0,9.805320314E0
3.113827514E0,-1.636505127E-1,-1.943664551E-1,9.802047729E0,9.805340356E0
3.116207885E0,-1.971130371E-1,-1.753234863E-1,9.797286987E0,9.800837933E0
3.118588256E0,-1.779785156E-1,-1.800842285E-1,9.811553955E0,9.814820309E0
3.120968627E0,-1.636505127E-1,-1.705627441E-1,9.802047729E0,9.804897390E0
3.123348998E0,-1.779785156E-1,-1.943664551E-1,9.763992310E0,9.767548336E0
3.125698851E0,-1.588592529E-1,-1.753234863E-1,9.792526245E0,9.795383854E0
3.128079223E0,-1.588592529E-1,-1.943664551E-1,9.821060181E0,9.824267792E0
3.130459594E0,-1.779785156E-1,-1.658020020E-1,9.806793213E0,9.809809365E0
3.132839965E0,-1.875457764E-1,-1.943664551E-1,9.811553955E0,9.815270895E0
3.135220336E0,-1.779785156E-1,-1.943664551E-1,9.802047729E0,9.805589955E0
3.137600707E0,-1.540679932E-1,-1.848449707E-1,9.811553955E0,9.814504349E0
3.139981078E0,-1.732025146E-1,-1.991119385E-1,9.816314697E0,9.819861451E0
3.142361449E0,-1.588592529E-1,-1.658020020E-1,9.797286987E0,9.799977494E0
3.144711303E0,-1.779785156E-1,-1.848449707E-1,9.806793213E0,9.810149700E0
3.147091674E0,-1.875457764E-1,-1.991119385E-1,9.792526245E0,9.796345709E0
3.149472045E0,-1.684112549E-1,-1.991119385E-1,9.773498535E0,9.776977116E0
3.151852416E0,-1.779785156E-1,-1.610412598E-1,9.797286987E0,9.800226679E0
3.154232787E0,-1.540679932E-1,-1.800842285E-1,9.821060181E0,9.823919297E0
3.156613158E0,-1.492919922E-1,-1.848449707E-1,9.802047729E0,9.804927101E0
3.158993529E0,-1.875457764E-1,-1.991119385E-1,9.792526245E0,9.796345709E0
3.161373900E0,-1.875457764E-1,-1.896057129E-1,9.830566406E0,9.834183220E0
3.163723754E0,-1.732025146E-1,-1.753234863E-1,9.797286987E0,9.800386204E0
3.166104125E0,-1.684112549E-1,-2.181701660E-1,9.754470825E0,9.758363677E0
3.168484496E0,-2.019042969E-1,-1.705627441E-1,9.802047729E0,9.805610470E0
3.170864867E0,-1.684112549E-1,-1.800842285E-1,9.811553955E0,9.814651481E0
3.173245238E0,-1.684112549E-1,-1.705627441E-1,9.778244019E0,9.781181426E0
3.175625609E0,-1.349487305E-1,-1.705627441E-1,9.773498535E0,9.775918188E0
3.178005980E0,-1.971130371E-1,-1.943664551E-1,9.754470825E0,9.758398073E0
3.180386351E0,-1.684112549E-1,-1.800842285E-1,9.773498535E0,9.776608118E0
3.182736205E0,-1.636505127E-1,-1.848449707E-1,9.778244019E0,9.781360092E0
3.185116576E0,-1.732025146E-1,-1.848449707E-1,9.802047729E0,9.805320314E0
3.187496947E0,-1.684112549E-1,-1.991119385E-1,9.797286987E0,9.800757125E0
3.189877318E0,-1.971130371E-1,-1.896057129E-1,9.802047729E0,9.805862714E0
3.192257689E0,-1.779785156E-1,-1.943664551E-1,9.806793213E0,9.810333725E0
3.194638060E0,-1.875457764E-1,-1.896057129E-1,9.787780762E0,9.791413380E0
3.197018432E0,-1.779785156E-1,-1.848449707E-1,9.816314697E0,9.819667930E0
3.199398803E0,-1.492919922E-1,-2.133941650E-1,9.802047729E0,9.805506864E0
3.201779174E0,-1.779785156E-1,-1.943664551E-1,9.768737793E0,9.772292092E0
3.204129027E0,-1.684112549E-1,-1.896057129E-1,9.816314697E0,9.819589956E0
3.206509398E0,-1.875457764E-1,-2.038879395E-1,9.797286987E0,9.801202784E0
3.208889769E0,-1.684112549E-1,-1.991119385E-1,9.773498535E0,9.776977116E0
3.211270140E0,-1.779785156E-1,-1.896057129E-1,9.802047729E0,9.805496743E0
3.213650512E0,-1.636505127E-1,-1.800842285E-1,9.816314697E0,9.819330224E0
3.216030883E0,-1.923217773E-1,-1.991119385E-1,9.787780762E0,9.791694719E0
3.218411254E0,-1.971130371E-1,-1.658020020E-1,9.821060181E0,9.824437232E0
3.220791625E0,-1.636505127E-1,-1.991119385E-1,9.749725342E0,9.753131358E0
3.223171996E0,-1.636505127E-1,-1.800842285E-1,9.783004761E0,9.786030552E0
3.225521849E0,-1.779785156E-1,-1.991119385E-1,9.802047729E0,9.805685168E0
3.227902221E0,-1.732025146E-1,-1.896057129E-1,9.773498535E0,9.776871844E0
3.230282592E0,-1.923217773E-1,-1.753234863E-1,9.768737793E0,9.772203644E0
3.232662963E0,-1.636505127E-1,-1.753234863E-1,9.768737793E0,9.771681426E0
3.235043334E0,-1.827697754E-1,-1.991119385E-1,9.806793213E0,9.810516983E0
3.237423705E0,-1.971130371E-1,-1.896057129E-1,9.783004761E0,9.786827168E0
3.239804076E0,-1.588592529E-1,-1.991119385E-1,9.806793213E0,9.810100659E0
3.242184447E0,-1.827697754E-1,-1.705627441E-1,9.816314697E0,9.819497476E0
3.244534301E0,-1.492919922E-1,-1.753234863E-1,9.844833374E0,9.847526115E0
3.246914672E0,-1.732025146E-1,-1.896057129E-1,9.821060181E0,9.824417159E0
3.249295043E0,-1.732025146E-1,-1.800842285E-1,9.792526245E0,9.795713333E0
3.251675414E0,-1.636505127E-1,-1.753234863E-1,9.806793213E0,9.809725426E0
3.254055785E0,-1.540679932E-1,-1.705627441E-1,9.811553955E0,9.814245748E0
3.256436156E0,-1.779785156E-1,-1.896057129E-1,9.806793213E0,9.810240558E0
3.258816527E0,-1.732025146E-1,-1.800842285E-1,9.783004761E0,9.786194949E0
3.261196898E0,-1.827697754E-1,-1.848449707E-1,9.768737793E0,9.772195788E0
3.263546752E0,-1.732025146E-1,-1.943664551E-1,9.778244019E0,9.781709131E0
3.265927123E0,-1.684112549E-1,-2.133941650E-1,9.778244019E0,9.782022056E0
3.268307494E0,-1.732025146E-1,-1.848449707E-1,9.816314697E0,9.819582527E0
3.270687865E0,-1.779785156E-1,-2.086334229E-1,9.773498535E0,9.777345134E0
3.273068236E0,-1.971130371E-1,-1.896057129E-1,9.763992310E0,9.767822157E0
3.275448607E0,-1.588592529E-1,-2.086334229E-1,9.802047729E0,9.805554745E0
3.277828978E0,-1.397247314E-1,-1.753234863E-1,9.821060181E0,9.823618702E0
3.280209349E0,-1.540679932E-1,-1.896057129E-1,9.802047729E0,9.805091890E0
3.282559203E0,-1.588592529E-1,-1.848449707E-1,9.787780762E0,9.790814888E0
3.284939574E0,-1.588592529E-1,-1.991119385E-1,9.835327148E0,9.838625003E0
3.287319945E0,-1.779785156E-1,-1.848449707E-1,9.797286987E0,9.800646730E0
3.289700316E0,-1.684112549E-1,-2.181701660E-1,9.811553955E0,9.815424167E0
3.292080687E0,-1.732025146E-1,-2.038879395E-1,9.802047729E0,9.805697787E0
3.294461058E0,-1.971130371E-1,-1.848449707E-1,9.797286987E0,9.801012883E0
3.296841430E0,-2.019042969E-1,-1.848449707E-1,9.783004761E0,9.786833766E0
3.299221801E0,-1.492919922E-1,-1.705627441E-1,9.787780762E0,9.790405098E0
3.301602172E0,-1.827697754E-1,-1.705627441E-1,9.787780762E0,9.790972816E0
3.303952025E0,-1.875457764E-1,-1.800842285E-1,9.787780762E0,9.791233629E0
3.306332396E0,-2.066650391E-1,-2.229156494E-1,9.773498535E0,9.778224555E0
3.308712767E0,-1.636505127E-1,-1.896057129E-1,9.830566406E0,9.833756540E0
3.311093139E0,-1.684112549E-1,-2.038879395E-1,9.821060181E0,9.824619876E0
3.313473510E0,-1.636505127E-1,-1.896057129E-1,9.802047729E0,9.805247142E0
3.315853881E0,-1.349487305E-1,-1.848449707E-1,9.778244019E0,9.780921987E0
3.318234252E0,-1.732025146E-1,-1.943664551E-1,9.806793213E0,9.810248241E0
3.320614623E0,-1.445159912E-1,-2.038879395E-1,9.816314697E0,9.819495374E0
3.322964476E0,-2.162475586E-1,-1.753234863E-1,9.802047729E0,9.806000256E0
3.325344848E0,-1.732025146E-1,-1.705627441E-1,9.806793213E0,9.809805497E0
3.327725219E0,-1.636505127E-1,-1.705627441E-1,9.816314697E0,9.819160217E0
3.330105590E0,-1.732025146E-1,-1.705627441E-1,9.811553955E0,9.814564778E0
3.332485961E0,-1.875457764E-1,-1.848449707E-1,9.802047729E0,9.805584163E0
3.334866332E0,-1.779785156E-1,-1.848449707E-1,9.787780762E0,9.791143766E0
3.337246703E0,-1.827697754E-1,-2.086334229E-1,9.811553955E0,9.815473687E0
3.339627074E0,-1.875457764E-1,-1.705627441E-1,9.778244019E0,9.781529592E0
3.341976928E0,-1.636505127E-1,-2.086334229E-1,9.778244019E0,9.781838553E0
3.344357299E0,-2.210235596E-1,-1.848449707E-1,9.792526245E0,9.796764228E0
3.346737670E0,-1.827697754E-1,-1.848449707E-1,9.802047729E0,9.805493978E0
3.349118041E0,-1.540679932E-1,-1.991119385E-1,9.797286987E0,9.800521151E0
3.351498412E0,-1.827697754E-1,-1.705627441E-1,9.802047729E0,9.805235139E0
3.353878783E0,-1.875457764E-1,-1.753234863E-1,9.806793213E0,9.810153152E0
3.356259154E0,-1.779785156E-1,-1.753234863E-1,9.778244019E0,9.781435005E0
3.358639525E0,-1.827697754E-1,-1.943664551E-1,9.797286987E0,9.800919111E0
3.361019896E0,-1.684112549E-1,-2.038879395E-1,9.811553955E0,9.815117098E0
3.363400267E0,-1.732025146E-1,-1.991119385E-1,9.811553955E0,9.815102429E0
3.365780639E0,-2.019042969E-1,-1.896057129E-1,9.763992310E0,9.767920019E0
3.368161010E0,-1.684112549E-1,-1.991119385E-1,9.806793213E0,9.810259988E0
3.370541381E0,-1.732025146E-1,-2.181701660E-1,9.797286987E0,9.801246331E0
3.372921752E0,-1.875457764E-1,-1.848449707E-1,9.778244019E0,9.781789058E0
3.375302123E0,-1.684112549E-1,-1.705627441E-1,9.778244019E0,9.781181426E0
3.377682494E0,-2.114562988E-1,-1.991119385E-1,9.792526245E0,9.796832631E0
3.380062865E0,-1.779785156E-1,-1.896057129E-1,9.787780762E0,9.791234800E0
3.382412719E0,-1.923217773E-1,-1.943664551E-1,9.787780762E0,9.791599370E0
3.384793090E0,-1.684112549E-1,-1.943664551E-1,9.778244019E0,9.781625466E0
3.387173461E0,-1.875457764E-1,-1.848449707E-1,9.792526245E0,9.796066116E0
3.389553832E0,-1.492919922E-1,-1.753234863E-1,9.749725342E0,9.752444343E0
3.391934203E0,-1.732025146E-1,-1.896057129E-1,9.778244019E0,9.781615691E0
3.394314574E0,-1.684112549E-1,-1.753234863E-1,9.825820923E0,9.828827879E0
3.396694945E0,-1.492919922E-1,-1.943664551E-1,9.787780762E0,9.790848720E0
3.399075316E0,-1.588592529E-1,-1.991119385E-1,9.783004761E0,9.786320247E0
3.401455687E0,-1.445159912E-1,-1.896057129E-1,9.840087891E0,9.842975409E0
3.403805541E0,-1.540679932E-1,-2.086334229E-1,9.825820923E0,9.829243189E0
3.406185912E0,-1.684112549E-1,-1.800842285E-1,9.811553955E0,9.814651481E0
3.408566283E0,-1.540679932E-1,-1.800842285E-1,9.783004761E0,9.785874995E0
3.410946654E0,-1.732025146E-1,-1.658020020E-1,9.787780762E0,9.790717116E0
3.413327025E0,-1.779785156E-1,-2.038879395E-1,9.763992310E0,9.767742445E0
3.415707396E0,-1.923217773E-1,-1.943664551E-1,9.768737793E0,9.772563842E0
3.418087767E0,-1.397247314E-1,-1.658020020E-1,9.792526245E0,9.794926420E0
3.420468139E0,-1.779785156E-1,-1.562805176E-1,9.773498535E0,9.776368118E0
3.422817992E0,-1.827697754E-1,-1.800842285E-1,9.778244019E0,9.781609847E0
3.425198363E0,-1.684112549E-1,-2.276763916E-1,9.802047729E0,9.806137801E0
3.427578734E0,-1.732025146E-1,-1.800842285E-1,9.792526245E0,9.795713333E0
3.429959105E0,-1.875457764E-1,-1.991119385E-1,9.792526245E0,9.796345709E0
3.432339476E0,-1.684112549E-1,-2.133941650E-1,9.802047729E0,9.805816596E0
3.434719848E0,-2.019042969E-1,-1.896057129E-1,9.797286987E0,9.801201354E0
3.437100219E0,-1.923217773E-1,-1.848449707E-1,9.802047729E0,9.805676673E0
3.439480590E0,-1.923217773E-1,-1.753234863E-1,9.778244019E0,9.781706501E0
3.441830443E0,-1.923217773E-1,-2.038879395E-1,9.821060181E0,9.825058831E0
3.444210814E0,-1.827697754E-1,-2.276763916E-1,9.797286987E0,9.801636274E0
3.446591185E0,-1.827697754E-1,-1.943664551E-1,9.821060181E0,9.824683516E0
3.448971557E0,-1.588592529E-1,-2.086334229E-1,9.811553955E0,9.815057574E0
3.451351928E0,-1.875457764E-1,-1.800842285E-1,9.821060181E0,9.824501352E0
3.453732299E0,-2.066650391E-1,-1.705627441E-1,9.806793213E0,9.810453364E0
3.456112670E0,-1.875457764E-1,-1.610412598E-1,9.816314697E0,9.819426762E0
3.458493041E0,-1.349487305E-1,-1.610412598E-1,9.787780762E0,9.790035633E0
3.460873412E0,-1.923217773E-1,-1.991119385E-1,9.802047729E0,9.805955992E0
3.463223265E0,-1.923217773E-1,-2.086334229E-1,9.811553955E0,9.815656197E0
3.465603637E0,-1.732025146E-1,-2.038879395E-1,9.806793213E0,9.810441505E0
3.467984008E0,-1.923217773E-1,-1.658020020E-1,9.811553955E0,9.814839224E0
3.470364379E0,-1.779785156E-1,-1.753234863E-1,9.816314697E0,9.819493312E0
3.472744750E0,-1.779785156E-1,-1.848449707E-1,9.768737793E0,9.772107351E0
3.475125121E0,-1.636505127E-1,-1.800842285E-1,9.797286987E0,9.800308369E0
3.477505492E0,-1.779785156E-1,-1.705627441E-1,9.802047729E0,9.805147000E0
3.479885863E0,-1.732025146E-1,-2.038879395E-1,9.792526245E0,9.796179851E0
3.482235717E0,-1.588592529E-1,-1.800842285E-1,9.783004761E0,9.785951601E0
3.484616088E0,-1.732025146E-1,-1.991119385E-1,9.802047729E0,9.805599643E0
3.486996459E0,-1.636505127E-1,-2.038879395E-1,9.783004761E0,9.786497531E0
3.489376830E0,-1.540679932E-1,-2.038879395E-1,9.768737793E0,9.772079886E0
3.491757201E0,-1.827697754E-1,-1.848449707E-1,9.763992310E0,9.767451985E0
3.494137572E0,-1.779785156E-1,-1.753234863E-1,9.797286987E0,9.800471774E0
3.496517943E0,-1.827697754E-1,-1.800842285E-1,9.768737793E0,9.772106896E0
3.498898314E0,-1.684112549E-1,-1.800842285E-1,9.778244019E0,9.781352093E0
3.501248168E0,-1.732025146E-1,-1.991119385E-1,9.816314697E0,9.819861451E0
3.503628539E0,-1.971130371E-1,-1.562805176E-1,9.797286987E0,9.800515775E0
3.506008910E0,-1.492919922E-1,-1.800842285E-1,9.783004761E0,9.785800968E0
3.508389281E0,-1.684112549E-1,-1.943664551E-1,9.783004761E0,9.786384563E0
3.510769652E0,-2.066650391E-1,-1.705627441E-1,9.816314697E0,9.819971300E0
3.513150023E0,-1.636505127E-1,-1.991119385E-1,9.792526245E0,9.795917380E0
3.515530394E0,-1.827697754E-1,-1.896057129E-1,9.778244019E0,9.781789775E0
3.517910765E0,-1.875457764E-1,-1.848449707E-1,9.787780762E0,9.791322348E0
3.520291137E0,-1.588592529E-1,-1.610412598E-1,9.773498535E0,9.776116006E0
3.522640990E0,-1.540679932E-1,-1.943664551E-1,9.816314697E0,9.819447515E0
3.525021361E0,-1.684112549E-1,-2.038879395E-1,9.792526245E0,9.796096309E0
3.527401732E0,-1.684112549E-1,-1.800842285E-1,9.797286987E0,9.800389022E0
3.529782103E0,-1.875457764E-1,-1.753234863E-1,9.802047729E0,9.805409295E0
3.532162474E0,-1.684112549E-1,-1.991119385E-1,9.759231567E0,9.762715232E0
3.534542846E0,-1.492919922E-1,-1.753234863E-1,9.792526245E0,9.795233366E0
3.536923217E0,-1.636505127E-1,-2.038879395E-1,9.821060181E0,9.824539422E0
3.539303588E0,-1.540679932E-1,-1.800842285E-1,9.783004761E0,9.785874995E0
3.541653441E0,-1.636505127E-1,-1.753234863E-1,9.783004761E0,9.785944102E0
3.544033812E0,-1.684112549E-1,-1.943664551E-1,9.806793213E0,9.810164820E0
3.546414183E0,-1.492919922E-1,-1.848449707E-1,9.821060181E0,9.823933980E0
3.548794555E0,-1.827697754E-1,-2.038879395E-1,9.816314697E0,9.820132856E0
3.551174926E0,-1.827697754E-1,-1.800842285E-1,9.816314697E0,9.819667477E0
3.553555297E0,-1.779785156E-1,-1.848449707E-1,9.797286987E0,9.800646730E0
3.555935668E0,-1.636505127E-1,-1.515197754E-1,9.773498535E0,9.776042827E0
3.558316039E0,-1.827697754E-1,-1.991119385E-1,9.802047729E0,9.805773302E0
3.560665892E0,-1.875457764E-1,-1.705627441E-1,9.825820923E0,9.829090593E0
3.563046264E0,-1.779785156E-1,-1.705627441E-1,9.825820923E0,9.828912697E0
3.565426635E0,-1.779785156E-1,-1.896057129E-1,9.744964600E0,9.748433809E0
3.567807006E0,-1.684112549E-1,-1.705627441E-1,9.787780762E0,9.790715308E0
3.570187377E0,-1.732025146E-1,-1.658020020E-1,9.763992310E0,9.766935816E0
3.572567748E0,-1.779785156E-1,-1.991119385E-1,9.792526245E0,9.796167219E0
3.574948119E0,-1.923217773E-1,-1.943664551E-1,9.816314697E0,9.820122210E0
3.577328490E0,-1.875457764E-1,-1.800842285E-1,9.811553955E0,9.814998460E0
3.579708861E0,-2.066650391E-1,-1.753234863E-1,9.806793213E0,9.810537288E0
3.582058715E0,-2.162475586E-1,-1.800842285E-1,9.759231567E0,9.763288079E0
3.584439086E0,-1.636505127E-1,-1.943664551E-1,9.792526245E0,9.795822072E0
3.586819457E0,-1.779785156E-1,-1.467590332E-1,9.816314697E0,9.819024840E0
3.589199828E0,-1.588592529E-1,-1.991119385E-1,9.811553955E0,9.814859797E0
3.591580199E0,-1.827697754E-1,-2.038879395E-1,9.754470825E0,9.758313182E0
3.593960570E0,-1.684112549E-1,-1.991119385E-1,9.792526245E0,9.795998069E0
3.596340941E0,-1.588592529E-1,-1.943664551E-1,9.816314697E0,9.819523859E0
3.598721312E0,-1.875457764E-1,-1.705627441E-1,9.825820923E0,9.829090593E0
3.601071166E0,-1.684112549E-1,-1.800842285E-1,9.811553955E0,9.814651481E0
3.603451537E0,-1.779785156E-1,-1.848449707E-1,9.802047729E0,9.805405841E0
3.605831908E0,-1.779785156E-1,-1.943664551E-1,9.763992310E0,9.767548336E0
3.608212279E0,-1.875457764E-1,-2.038879395E-1,9.787780762E0,9.791700360E0
3.610592650E0,-1.636505127E-1,-1.800842285E-1,9.797286987E0,9.800308369E0
3.612973021E0,-1.875457764E-1,-1.848449707E-1,9.787780762E0,9.791322348E0
3.615353392E0,-1.588592529E-1,-1.896057129E-1,9.754470825E0,9.757606657E0
3.617733764E0,-1.397247314E-1,-2.133941650E-1,9.759231567E0,9.762564256E0
3.620083617E0,-1.732025146E-1,-1.943664551E-1,9.806793213E0,9.810248241E0
3.622463988E0,-1.732025146E-1,-1.896057129E-1,9.768737793E0,9.772112745E0
3.624844359E0,-2.019042969E-1,-1.896057129E-1,9.773498535E0,9.777422426E0
3.627224730E0,-1.684112549E-1,-1.800842285E-1,9.778244019E0,9.781352093E0
3.629605101E0,-1.588592529E-1,-2.229156494E-1,9.768737793E0,9.772572114E0
3.631985473E0,-1.684112549E-1,-1.753234863E-1,9.802047729E0,9.805061977E0
3.634365844E0,-1.636505127E-1,-1.848449707E-1,9.806793213E0,9.809900217E0
3.636746215E0,-1.827697754E-1,-1.991119385E-1,9.835327148E0,9.839040119E0
3.639126586E0,-1.540679932E-1,-1.848449707E-1,9.792526245E0,9.795482371E0
3.641506957E0,-1.779785156E-1,-1.705627441E-1,9.773498535E0,9.776606856E0
3.643887328E0,-1.875457764E-1,-1.800842285E-1,9.778244019E0,9.781700253E0
3.646267699E0,-1.540679932E-1,-1.943664551E-1,9.811553955E0,9.814688292E0
3.648648070E0,-1.588592529E-1,-1.848449707E-1,9.802047729E0,9.805077441E0
3.651028441E0,-1.492919922E-1,-1.991119385E-1,9.792526245E0,9.795688027E0
3.653408812E0,-1.636505127E-1,-1.800842285E-1,9.763992310E0,9.767023991E0
3.655789183E0,-1.684112549E-1,-1.848449707E-1,9.792526245E0,9.795718467E0
3.658169555E0,-1.875457764E-1,-1.705627441E-1,9.811553955E0,9.814828378E0
3.660519408E0,-1.923217773E-1,-1.800842285E-1,9.821060181E0,9.824593685E0
3.662899779E0,-1.540679932E-1,-2.086334229E-1,9.792526245E0,9.795960142E0
3.665280150E0,-1.779785156E-1,-1.991119385E-1,9.783004761E0,9.786649277E0
3.667660521E0,-1.923217773E-1,-1.800842285E-1,9.787780762E0,9.791326276E0
3.670040892E0,-1.875457764E-1,-2.038879395E-1,9.811553955E0,9.815464061E0
3.672421264E0,-1.779785156E-1,-1.943664551E-1,9.797286987E0,9.800830933E0
3.674801635E0,-1.923217773E-1,-2.038879395E-1,9.811553955E0,9.815556478E0
3.677182006E0,-1.971130371E-1,-1.753234863E-1,9.792526245E0,9.796078916E0
3.679531859E0,-1.923217773E-1,-1.610412598E-1,9.783004761E0,9.786220113E0
3.681912230E0,-1.732025146E-1,-2.038879395E-1,9.792526245E0,9.796179851E0
3.684292601E0,-1.827697754E-1,-2.181701660E-1,9.783004761E0,9.787143871E0
3.686672973E0,-1.684112549E-1,-1.610412598E-1,9.811553955E0,9.814320539E0
3.689053344E0,-1.827697754E-1,-1.848449707E-1,9.797286987E0,9.800734909E0
3.691433715E0,-1.732025146E-1,-2.276763916E-1,9.816314697E0,9.820482162E0
3.693814086E0,-1.540679932E-1,-2.038879395E-1,9.821060181E0,9.824384475E0
3.696194457E0,-1.779785156E-1,-2.181701660E-1,9.802047729E0,9.806090672E0
3.698544310E0,-1.923217773E-1,-2.038879395E-1,9.773498535E0,9.777516636E0
3.700924682E0,-1.875457764E-1,-1.753234863E-1,9.806793213E0,9.810153152E0
3.703305053E0,-1.588592529E-1,-1.705627441E-1,9.811553955E0,9.814322133E0
3.705685424E0,-1.588592529E-1,-1.800842285E-1,9.792526245E0,9.795470221E0
3.708065795E0,-1.923217773E-1,-1.800842285E-1,9.783004761E0,9.786552005E0
3.710446166E0,-1.588592529E-1,-1.705627441E-1,9.825820923E0,9.828585082E0
3.712826537E0,-1.636505127E-1,-1.705627441E-1,9.816314697E0,9.819160217E0
3.715206908E0,-1.588592529E-1,-2.038879395E-1,9.802047729E0,9.805454923E0
3.717587279E0,-1.875457764E-1,-1.800842285E-1,9.821060181E0,9.824501352E0
3.719937133E0,-1.732025146E-1,-1.943664551E-1,9.811553955E0,9.815007307E0
3.722317504E0,-1.445159912E-1,-1.848449707E-1,9.802047729E0,9.804855543E0
3.724697875E0,-1.875457764E-1,-1.848449707E-1,9.778244019E0,9.781789058E0
3.727078246E0,-1.636505127E-1,-1.753234863E-1,9.811553955E0,9.814484746E0
3.729458617E0,-1.684112549E-1,-1.753234863E-1,9.797286987E0,9.800302699E0
3.731838988E0,-1.588592529E-1,-2.086334229E-1,9.783004761E0,9.786518600E0
3.734219359E0,-1.875457764E-1,-1.991119385E-1,9.821060181E0,9.824868552E0
3.736599730E0,-1.684112549E-1,-1.896057129E-1,9.806793213E0,9.810071651E0
3.738949584E0,-1.875457764E-1,-1.943664551E-1,9.763992310E0,9.767727349E0
3.741329955E0,-1.875457764E-1,-1.991119385E-1,9.792526245E0,9.796345709E0
3.743710326E0,-1.588592529E-1,-1.562805176E-1,9.816314697E0,9.818843827E0
3.746090697E0,-1.540679932E-1,-1.848449707E-1,9.763992310E0,9.766957071E0
3.748471068E0,-1.923217773E-1,-2.181701660E-1,9.768737793E0,9.773066251E0
3.750851439E0,-1.588592529E-1,-1.943664551E-1,9.797286987E0,9.800502380E0
3.753231810E0,-1.684112549E-1,-1.467590332E-1,9.806793213E0,9.809337067E0
3.755612182E0,-1.540679932E-1,-1.848449707E-1,9.787780762E0,9.790738320E0
3.757992553E0,-1.875457764E-1,-1.991119385E-1,9.806793213E0,9.810607122E0
3.760342406E0,-1.636505127E-1,-2.086334229E-1,9.811553955E0,9.815136291E0
3.762722777E0,-1.779785156E-1,-1.896057129E-1,9.792526245E0,9.795978611E0
3.765103148E0,-1.684112549E-1,-1.658020020E-1,9.802047729E0,9.804896345E0
3.767483519E0,-1.732025146E-1,-1.658020020E-1,9.802047729E0,9.804979812E0
3.769863890E0,-1.779785156E-1,-1.705627441E-1,9.802047729E0,9.805147000E0
3.772244262E0,-1.779785156E-1,-2.038879395E-1,9.778244019E0,9.781988690E0
3.774624633E0,-1.875457764E-1,-1.896057129E-1,9.787780762E0,9.791413380E0
3.777005004E0,-1.732025146E-1,-1.991119385E-1,9.840087891E0,9.843626078E0
3.779354857E0,-1.636505127E-1,-1.658020020E-1,9.825820923E0,9.828582227E0
3.781735228E0,-1.684112549E-1,-1.943664551E-1,9.811553955E0,9.814923927E0
3.784115599E0,-1.827697754E-1,-2.086334229E-1,9.797286987E0,9.801212425E0
3.786495971E0,-1.875457764E-1,-1.800842285E-1,9.792526245E0,9.795977440E0
3.788876342E0,-1.732025146E-1,-1.658020020E-1,9.797286987E0,9.800220494E0
3.791256713E0,-1.779785156E-1,-2.086334229E-1,9.783004761E0,9.786847624E0
3.793637084E0,-1.779785156E-1,-1.991119385E-1,9.806793213E0,9.810428892E0
3.796017455E0,-1.779785156E-1,-1.943664551E-1,9.783004761E0,9.786553879E0
3.798367308E0,-1.779785156E-1,-2.038879395E-1,9.787780762E0,9.791521786E0
3.800747680E0,-1.923217773E-1,-2.038879395E-1,9.802047729E0,9.806054132E0
3.803128051E0,-1.875457764E-1,-2.038879395E-1,9.783004761E0,9.786926272E0
3.805508422E0,-1.827697754E-1,-1.800842285E-1,9.811553955E0,9.814908361E0
3.807888793E0,-2.162475586E-1,-1.943664551E-1,9.787780762E0,9.792098527E0
3.810269164E0,-1.636505127E-1,-1.896057129E-1,9.797286987E0,9.800487954E0
3.812649535E0,-1.779785156E-1,-1.848449707E-1,9.787780762E0,9.791143766E0
3.815029906E0,-1.923217773E-1,-2.038879395E-1,9.792526245E0,9.796536542E0
3.817410277E0,-1.875457764E-1,-1.943664551E-1,9.811553955E0,9.815270895E0
3.819760131E0,-1.971130371E-1,-2.133941650E-1,9.811553955E0,9.815853587E0
3.822140502E0,-1.971130371E-1,-1.753234863E-1,9.792526245E0,9.796078916E0
3.824520873E0,-1.779785156E-1,-2.038879395E-1,9.783004761E0,9.786747611E0
3.826901244E0,-1.540679932E-1,-1.991119385E-1,9.816314697E0,9.819542594E0
3.829281615E0,-1.732025146E-1,-1.800842285E-1,9.773498535E0,9.776691826E0
3.831661986E0,-1.588592529E-1,-1.610412598E-1,9.759231567E0,9.761852864E0
3.834042357E0,-1.779785156E-1,-1.896057129E-1,9.768737793E0,9.772198563E0
